aX,aY,aZ,gX,gY,gZ
0.097,-0.844,-1.647,-18.982,46.387,-47.119
0.070,-0.778,-1.528,-12.207,17.212,-34.668
0.057,-0.691,-1.248,-10.437,-11.414,-24.536
0.014,-0.653,-0.949,-6.775,-31.738,-18.433
-0.009,-0.599,-0.724,13.550,-40.344,-10.193
-0.014,-0.526,-0.589,41.931,-39.734,-1.343
0.020,-0.474,-0.552,60.120,-30.151,5.005
0.044,-0.425,-0.597,61.401,-13.428,8.667
0.064,-0.400,-0.705,50.049,3.967,10.071
0.088,-0.368,-0.848,44.312,14.954,10.315
0.111,-0.328,-0.948,50.110,15.320,10.315
0.114,-0.221,-1.002,61.584,6.653,5.432
0.118,-0.304,-0.958,55.847,-1.953,-7.629
0.124,-0.407,-0.952,35.889,-0.977,-13.733
0.146,-0.417,-1.021,25.574,6.348,-11.658
0.129,-0.426,-1.116,14.954,12.207,-9.338
0.129,-0.459,-1.183,13.367,10.498,-8.362
0.117,-0.445,-1.190,18.799,1.465,-4.639
0.119,-0.413,-1.134,26.367,-11.047,-1.099
0.131,-0.378,-1.055,33.630,-21.301,1.770
0.118,-0.337,-0.995,35.583,-25.696,4.517
0.122,-0.335,-0.959,31.677,-25.452,5.859
0.125,-0.302,-0.934,24.353,-22.705,7.751
0.125,-0.288,-0.920,20.447,-20.752,7.690
0.130,-0.287,-0.894,19.043,-19.836,6.165
0.133,-0.263,-0.859,16.357,-18.127,5.554
0.139,-0.241,-0.841,12.817,-14.404,4.089
0.145,-0.218,-0.843,6.042,-8.057,1.526
0.145,-0.207,-0.861,-5.066,-1.038,-2.319
0.144,-0.227,-0.894,-15.442,5.127,-7.324
0.139,-0.261,-0.929,-21.484,9.094,-12.024
0.135,-0.288,-0.956,-23.682,10.681,-14.954
0.120,-0.317,-0.980,-22.522,10.254,-16.479
0.270,-0.337,-0.954,-21.423,8.301,-16.846
0.136,-0.340,-0.884,-24.719,6.104,-17.395
0.088,-0.386,-0.922,-11.047,7.874,-20.081
0.061,-0.428,-0.962,-14.893,10.132,-18.311
0.072,-0.438,-0.988,-11.719,9.277,-14.465
0.077,-0.426,-0.985,-5.859,6.165,-10.437
0.091,-0.409,-0.964,-0.427,2.869,-7.812
0.084,-0.391,-0.943,0.427,1.526,-6.287
0.089,-0.377,-0.928,-0.610,2.014,-5.554
0.090,-0.372,-0.923,-0.488,3.418,-5.005
0.083,-0.370,-0.934,-0.793,4.639,-4.456
0.104,-0.369,-0.949,-2.014,5.920,-3.723
0.096,-0.361,-0.972,-0.305,5.798,-3.357
0.087,-0.358,-0.987,2.197,4.761,-2.930
0.071,-0.351,-0.983,0.977,3.296,-2.869
0.046,-0.350,-0.976,-2.319,2.197,-2.686
0.070,-0.370,-0.965,-6.165,2.136,-2.686
0.080,-0.392,-0.954,-5.371,1.770,-2.686
0.098,-0.398,-0.946,-3.906,1.892,-1.709
0.125,-0.391,-0.953,-2.930,3.174,-0.244
0.095,-0.371,-0.956,-1.648,3.967,0.549
0.111,-0.352,-0.953,1.343,3.113,0.793
0.083,-0.343,-0.949,4.150,2.136,-0.427
0.041,-0.340,-0.947,2.686,2.319,-0.854
0.034,-0.332,-0.972,-3.723,3.967,-0.549
0.086,-0.338,-0.998,-13.855,5.371,-0.854
0.100,-0.392,-0.978,-19.165,3.357,-2.380
0.089,-0.404,-0.949,-12.878,-0.122,-2.197
0.077,-0.384,-0.926,-2.869,-2.380,0.244
0.084,-0.355,-0.908,3.113,-2.869,2.014
0.307,-0.422,-0.804,5.371,-1.038,0.916
0.057,-0.386,-0.845,28.259,1.282,-1.221
-0.095,-0.275,-1.005,30.518,11.169,3.357
0.080,-0.318,-1.083,6.348,14.465,1.709
0.098,-0.401,-1.031,-5.127,4.761,-2.686
0.076,-0.421,-0.966,-0.183,-2.808,-2.136
0.064,-0.414,-0.927,4.333,-3.906,0.671
0.067,-0.394,-0.913,9.521,-2.869,3.418
0.074,-0.375,-0.925,13.794,-0.977,5.493
0.074,-0.358,-0.937,14.465,0.244,6.287
0.077,-0.344,-0.934,11.963,0.122,6.775
0.077,-0.340,-0.930,8.850,0.732,6.042
0.081,-0.336,-0.933,5.920,2.258,5.371
0.087,-0.331,-0.948,2.625,4.395,4.883
0.090,-0.341,-0.970,1.282,5.554,4.395
0.071,-0.347,-0.993,4.395,4.761,4.150
0.107,-0.341,-0.994,8.362,2.197,4.761
0.109,-0.319,-1.010,12.634,0.061,4.272
0.101,-0.297,-0.999,8.118,-1.404,3.540
0.095,-0.316,-0.976,4.272,-3.418,0.732
0.086,-0.345,-0.956,2.014,-4.028,-1.221
0.078,-0.352,-0.946,2.563,-3.906,-0.977
0.075,-0.351,-0.937,5.310,-3.967,-0.061
0.074,-0.352,-0.923,6.653,-3.845,0.671
0.062,-0.362,-0.918,6.287,-2.747,1.160
0.083,-0.366,-0.930,9.644,-0.977,2.686
0.091,-0.358,-0.954,15.686,-0.183,4.028
0.086,-0.332,-0.971,13.550,0.488,5.310
0.089,-0.325,-0.978,11.719,-0.122,5.127
0.088,-0.312,-0.963,8.972,-1.038,4.211
0.088,-0.314,-0.951,5.005,-1.221,3.296
0.086,-0.319,-0.956,3.967,-0.366,2.136
0.089,-0.338,-0.962,5.249,-0.427,1.648
0.086,-0.349,-0.979,10.376,-0.977,1.892
0.082,-0.354,-0.981,16.968,-2.441,3.357
0.082,-0.352,-0.969,22.217,-4.395,5.005
0.085,-0.342,-0.961,23.865,-5.432,6.653
0.088,-0.327,-0.962,23.010,-4.639,7.629
0.091,-0.307,-0.966,21.057,-3.845,8.240
0.092,-0.284,-0.961,18.799,-3.723,8.179
0.091,-0.275,-0.944,16.052,-3.662,7.263
0.092,-0.265,-0.924,12.817,-3.174,5.798
0.095,-0.261,-0.923,8.972,-1.221,4.272
0.097,-0.264,-0.947,4.517,1.648,2.441
0.095,-0.285,-0.978,0.061,3.906,0.732
0.096,-0.308,-0.989,-2.441,3.845,-0.122
0.097,-0.322,-1.000,-0.732,2.502,0.183
0.093,-0.312,-0.996,3.357,0.427,1.526
0.095,-0.303,-0.983,3.967,-1.038,2.441
0.096,-0.294,-0.975,3.784,-1.221,2.869
0.098,-0.281,-0.969,4.639,-1.099,2.808
0.100,-0.272,-0.964,5.859,-1.282,2.686
0.095,-0.280,-0.974,6.653,-1.160,1.648
0.092,-0.297,-0.984,5.249,-0.610,0.732
0.087,-0.312,-0.981,3.845,-0.854,0.916
0.083,-0.312,-0.966,4.517,-1.953,1.648

-0.782,-0.184,-2.292,-49.316,201.050,9.766
-0.793,-0.132,-2.639,-51.453,176.758,21.790
-0.767,-0.130,-2.733,-61.890,134.766,28.198
-0.689,-0.133,-2.630,-70.557,86.792,28.931
-0.606,-0.115,-2.347,-65.002,36.194,27.039
-0.512,-0.147,-1.931,-50.110,-12.329,22.095
-0.445,-0.135,-1.531,-29.785,-47.913,19.226
-0.398,-0.109,-1.180,-8.911,-68.054,16.663
-0.362,-0.096,-0.906,9.399,-72.876,13.123
-0.295,-0.056,-0.762,24.475,-62.378,11.414
-0.243,-0.010,-0.754,33.630,-44.373,9.827
-0.214,0.001,-0.791,32.715,-28.625,6.653
-0.203,-0.049,-0.792,23.499,-19.836,3.113
-0.185,-0.079,-0.741,16.296,-16.479,2.502
-0.186,-0.046,-0.692,13.306,-12.756,6.165
-0.150,-0.036,-0.681,9.338,-6.531,7.080
-0.154,-0.044,-0.726,8.728,-5.188,3.052
-0.165,-0.033,-0.730,9.033,-3.784,3.784
-0.152,-0.005,-0.724,12.878,2.136,9.155
-0.155,0.056,-0.799,14.832,13.306,14.465
-0.148,0.109,-0.940,17.944,22.827,14.893
-0.133,0.110,-1.065,25.269,23.071,10.986
-0.139,0.110,-1.127,30.457,15.503,8.301
-0.148,0.169,-1.205,33.142,7.996,6.592
-0.183,0.152,-1.234,30.334,1.282,1.709
-0.191,0.110,-1.242,26.306,-2.991,-0.671
-0.194,0.131,-1.247,21.423,-3.845,2.258
-0.183,0.191,-1.241,16.785,-4.700,4.761
-0.164,0.209,-1.200,10.376,-7.690,1.892
-0.159,0.146,-1.105,2.441,-13.672,-4.150
-0.168,0.093,-1.007,-2.014,-18.250,-7.690
-0.151,0.099,-1.001,-4.578,-19.409,-9.583
-0.199,0.017,-0.934,-8.240,-22.522,-14.282
-0.196,-0.020,-0.865,-10.193,-23.315,-14.343
-0.196,-0.016,-0.829,-10.376,-18.372,-10.559
-0.203,-0.010,-0.845,-9.644,-10.071,-7.690
-0.203,-0.033,-0.883,-8.484,-2.991,-6.897
-0.206,-0.044,-0.925,-6.653,1.038,-5.310
-0.210,-0.032,-0.959,-3.235,3.784,-2.869
-0.211,-0.017,-0.997,0.244,5.066,-1.343
-0.211,-0.022,-1.031,1.709,5.066,-0.793
-0.209,-0.016,-1.060,3.418,4.272,0.000
-0.203,0.004,-1.076,4.761,2.686,1.282
-0.198,0.024,-1.082,3.845,1.587,1.953
-0.195,0.019,-1.073,1.831,0.305,1.343
-0.190,0.011,-1.046,-0.122,-1.526,0.793
-0.183,0.017,-1.017,-0.977,-2.869,1.099
-0.181,0.015,-1.007,0.122,-3.357,1.343
-0.176,0.020,-0.997,1.953,-3.479,1.343
-0.169,0.031,-0.979,2.380,-4.089,1.770
-0.167,0.040,-0.968,2.319,-3.723,1.770
-0.165,0.044,-0.965,2.197,-3.052,1.587
-0.165,0.044,-0.964,2.258,-2.075,1.282
-0.167,0.046,-0.967,1.526,-0.977,1.160
-0.170,0.047,-0.974,0.122,0.732,1.099
-0.168,0.046,-0.985,-1.160,2.625,0.854
-0.171,0.051,-0.993,-2.441,4.028,0.854
-0.174,0.044,-1.004,-3.723,4.517,0.366
-0.177,0.030,-1.012,-3.845,3.723,-0.488
-0.185,0.021,-1.016,-2.808,2.502,-0.671
-0.191,0.014,-1.014,-1.282,1.038,-0.732
-0.186,0.014,-1.010,-0.488,0.000,-0.549
-0.189,0.009,-1.002,-0.977,-0.671,-0.366
-0.187,0.008,-1.000,-0.183,-0.854,-0.122
-0.183,0.024,-1.002,1.709,-0.793,0.793
-0.178,0.032,-0.999,1.953,-0.793,1.099
-0.180,0.030,-0.992,0.427,-0.488,0.488
-0.181,0.023,-0.987,-1.343,0.427,0.122
-0.182,0.020,-0.986,-1.587,1.099,0.061
-0.185,0.017,-0.987,-1.770,1.526,0.122
-0.187,0.012,-0.992,-2.075,2.380,0.183
-0.192,0.005,-1.004,-1.709,2.625,0.305
-0.191,0.012,-1.009,-0.671,2.502,0.793
-0.187,0.020,-1.009,-0.183,2.136,1.343
-0.188,0.020,-1.006,-0.122,1.709,1.221
-0.188,0.016,-0.999,0.061,0.793,0.977
-0.182,0.025,-0.990,0.244,0.244,1.221
-0.141,0.058,-1.043,-0.977,0.854,1.160
-0.198,0.036,-1.044,-4.639,-2.686,-1.221
-0.172,0.026,-0.961,-5.554,-6.653,-1.404
-0.186,0.025,-0.936,-2.808,-2.808,-0.183
-0.182,0.033,-0.981,-1.953,2.625,0.183
-0.179,0.016,-1.021,-1.648,4.578,-0.549
-0.180,0.015,-1.016,-1.160,1.831,-0.793
-0.159,0.042,-1.007,-1.526,-0.244,-0.122
-0.190,0.021,-1.005,-5.554,-2.747,-1.770
-0.181,0.004,-0.968,-6.348,-3.845,-2.136
-0.197,-0.000,-0.977,-1.709,-0.671,-1.221
-0.186,0.019,-1.001,0.061,1.953,-0.061
-0.181,0.027,-1.018,-0.610,2.563,-0.183
-0.171,0.026,-1.036,-2.808,0.793,-1.038
-0.194,-0.002,-1.009,-6.226,-3.479,-2.014
-0.188,-0.000,-0.949,-5.371,-5.432,-1.526
-0.196,-0.006,-0.944,-1.343,-1.892,-0.977
-0.193,-0.015,-0.997,-0.488,2.747,-0.549
-0.193,-0.021,-1.031,0.366,3.784,-0.122
-0.190,-0.010,-1.013,1.160,0.793,0.916
-0.187,0.010,-0.990,0.244,-0.427,2.014
-0.179,0.023,-0.993,-0.122,0.854,2.075
-0.180,0.026,-1.006,-0.366,1.953,1.404
-0.183,0.016,-1.004,-1.038,0.854,0.549
-0.185,0.009,-0.995,-0.977,-0.122,0.061
-0.189,0.006,-0.996,-0.916,0.061,0.000
-0.187,-0.000,-0.997,-0.488,0.671,0.061
-0.185,0.002,-1.001,0.549,0.366,0.305
-0.180,0.016,-1.002,0.977,0.000,0.977
-0.183,0.018,-1.004,-0.427,0.000,0.793
-0.183,0.010,-1.009,-0.671,0.183,0.122
-0.180,0.017,-1.000,-0.793,-0.244,0.244
-0.176,0.021,-0.991,-1.160,-0.549,0.122
-0.182,0.009,-0.987,-1.831,-0.366,-0.549
-0.188,-0.007,-0.983,-2.258,-0.244,-1.099
-0.176,-0.000,-1.028,-1.831,0.061,-0.732
-0.199,-0.017,-1.027,-3.845,-2.563,-0.671
-0.188,0.009,-0.984,-3.723,-4.578,1.160
-0.193,0.008,-0.960,-1.770,-1.892,1.465
-0.188,0.011,-1.002,-3.052,2.991,1.343
-0.176,0.013,-1.053,-4.272,4.639,0.793
-0.199,0.010,-1.087,-6.958,0.732,0.061

-1.047,-0.108,-2.467,-33.020,314.148,-61.584
-1.258,-0.323,-3.040,-70.862,292.969,-76.965
-1.258,-0.753,-3.275,-95.703,238.159,-91.980
-1.185,-1.137,-3.013,-123.718,156.189,-85.205
-1.081,-1.314,-2.448,-131.592,68.176,-57.190
-0.938,-1.276,-1.826,-104.126,-7.324,-25.452
-0.848,-1.180,-1.254,-52.002,-63.782,-1.343
-0.707,-1.024,-0.906,10.803,-91.980,19.104
-0.595,-0.735,-0.751,61.462,-94.666,38.757
-0.514,-0.451,-0.688,87.402,-84.290,51.575
-0.413,-0.276,-0.602,89.233,-73.303,54.016
-0.304,-0.181,-0.476,78.552,-65.002,51.025
-0.194,-0.119,-0.330,69.336,-57.434,46.997
-0.092,-0.075,-0.229,63.843,-45.349,42.175
-0.055,-0.066,-0.214,60.120,-24.048,35.522
-0.077,-0.085,-0.316,52.124,6.042,30.029
-0.101,-0.086,-0.507,43.762,34.424,28.015
-0.121,-0.065,-0.706,31.311,55.298,28.320
-0.152,-0.044,-0.878,17.395,68.420,27.893
-0.196,-0.032,-1.055,5.371,78.003,26.672
-0.229,-0.028,-1.236,-4.150,83.008,24.658
-0.252,-0.038,-1.379,-10.437,78.796,21.362
-0.308,-0.062,-1.435,-13.916,64.941,16.968
-0.318,-0.084,-1.437,-12.756,45.776,13.733
-0.331,-0.096,-1.401,-8.667,26.917,11.230
-0.332,-0.111,-1.347,-4.089,11.108,8.789
-0.317,-0.120,-1.263,1.282,-2.380,6.958
-0.301,-0.116,-1.165,6.104,-13.184,5.493
-0.290,-0.113,-1.073,8.606,-20.996,3.479
-0.282,-0.139,-0.982,10.193,-26.733,0.366
-0.283,-0.171,-0.887,10.132,-29.663,-2.197
-0.287,-0.192,-0.818,10.437,-28.320,-3.113
-0.284,-0.198,-0.797,12.939,-23.071,-3.052
-0.281,-0.195,-0.802,14.893,-17.212,-3.113
-0.285,-0.187,-0.811,13.916,-11.780,-3.113
-0.284,-0.173,-0.817,10.681,-6.592,-3.113
-0.286,-0.177,-0.833,6.287,-2.136,-3.784
-0.301,-0.197,-0.882,2.563,3.113,-5.188
-0.316,-0.216,-0.942,1.587,6.714,-5.981
-0.322,-0.226,-0.965,1.221,7.141,-5.615
-0.324,-0.236,-0.966,-1.038,7.202,-4.639
-0.329,-0.248,-0.988,-3.479,8.545,-3.723
-0.329,-0.247,-1.018,-3.662,9.460,-2.563
-0.328,-0.243,-1.038,-2.869,7.996,-1.770
-0.328,-0.238,-1.042,-2.258,5.188,-0.916
-0.324,-0.228,-1.032,-0.793,2.258,0.183
-0.312,-0.218,-1.011,1.160,-0.671,0.610
-0.306,-0.217,-0.991,2.869,-2.930,0.671
-0.300,-0.220,-0.973,4.761,-4.639,0.793
-0.280,-0.191,-0.910,6.104,-5.005,1.831
-0.308,-0.194,-0.949,4.822,-2.014,2.197
-0.288,-0.198,-0.923,4.883,-4.211,2.380
-0.284,-0.185,-0.892,4.517,-4.883,3.052
-0.273,-0.191,-0.880,2.441,-2.563,2.625
-0.297,-0.195,-0.928,0.000,2.258,2.258
-0.278,-0.193,-0.933,-0.793,2.563,2.563
-0.285,-0.181,-0.944,-3.540,3.540,2.686
-0.287,-0.196,-0.972,-7.019,5.737,2.136
-0.292,-0.206,-0.990,-9.094,6.165,1.587
-0.295,-0.212,-0.992,-9.460,4.578,1.770
-0.301,-0.209,-0.987,-9.277,2.930,2.136
-0.299,-0.204,-0.982,-7.812,1.465,2.258
-0.295,-0.201,-0.983,-5.249,-0.061,1.770
-0.295,-0.204,-0.980,-3.052,-2.136,0.916
-0.296,-0.210,-0.974,-0.977,-3.906,0.061
-0.292,-0.215,-0.963,0.305,-5.249,-0.183
-0.291,-0.218,-0.954,0.916,-5.798,0.000
-0.290,-0.213,-0.947,1.709,-5.981,0.427
-0.287,-0.211,-0.939,2.747,-6.165,0.305
-0.287,-0.223,-0.931,3.235,-6.104,-0.061
-0.289,-0.229,-0.927,2.930,-5.432,0.061
-0.295,-0.229,-0.936,2.625,-4.211,0.793
-0.294,-0.223,-0.944,2.991,-3.418,1.709
-0.296,-0.213,-0.947,3.540,-3.296,2.441
-0.298,-0.205,-0.953,4.517,-3.418,2.686
-0.294,-0.192,-0.963,6.042,-3.601,2.747
-0.288,-0.179,-0.959,5.737,-4.272,2.502
-0.295,-0.185,-0.950,3.723,-4.822,1.465
-0.302,-0.200,-0.946,2.869,-4.517,0.732
-0.306,-0.205,-0.938,2.991,-4.089,0.977
-0.307,-0.202,-0.929,2.502,-3.357,1.587
-0.309,-0.201,-0.926,2.319,-2.258,2.014
-0.309,-0.208,-0.919,2.441,-1.282,1.892
-0.314,-0.215,-0.926,2.075,0.000,2.075
-0.318,-0.207,-0.953,2.380,2.319,2.930
-0.311,-0.192,-0.987,3.174,3.906,3.906
-0.306,-0.187,-1.008,3.296,3.662,4.028
-0.299,-0.187,-1.004,2.930,1.770,3.906
-0.286,-0.180,-0.985,2.258,-0.671,3.845
-0.280,-0.168,-0.973,1.587,-2.014,3.601
-0.258,-0.161,-0.931,1.770,-2.319,2.563
-0.286,-0.172,-0.970,1.526,-0.671,1.099
-0.271,-0.187,-0.947,2.136,-3.113,0.061
-0.272,-0.185,-0.909,2.136,-4.700,-0.122
-0.274,-0.199,-0.896,1.587,-3.540,-0.916
-0.270,-0.218,-0.902,1.892,-1.221,-1.709
-0.301,-0.230,-0.945,3.113,2.808,-1.648
-0.302,-0.243,-0.984,4.822,4.089,-0.977
-0.301,-0.224,-0.990,6.470,2.991,0.854
-0.298,-0.206,-1.007,7.019,2.930,2.625
-0.292,-0.191,-1.012,5.859,1.526,3.296
-0.286,-0.171,-1.006,4.700,-0.183,3.784
-0.281,-0.152,-0.998,3.357,-1.526,3.662
-0.276,-0.140,-0.981,2.625,-2.625,2.930
-0.272,-0.150,-0.956,1.465,-3.540,1.404
-0.274,-0.167,-0.929,0.000,-4.211,-0.244
-0.278,-0.182,-0.912,-0.732,-4.150,-1.099
-0.275,-0.193,-0.905,0.061,-3.296,-1.404
-0.278,-0.199,-0.907,1.282,-2.075,-1.465
-0.284,-0.202,-0.923,1.709,-0.244,-1.038
-0.287,-0.202,-0.951,1.526,1.831,-0.610
-0.289,-0.195,-0.984,1.282,3.296,0.061
-0.291,-0.194,-1.001,1.099,2.808,0.366
-0.293,-0.199,-1.001,0.549,1.160,0.427
-0.293,-0.201,-0.990,0.122,-0.427,0.671
-0.286,-0.195,-0.976,0.366,-1.465,0.916
-0.281,-0.192,-0.964,1.343,-2.563,0.977
-0.278,-0.196,-0.944,2.136,-3.296,0.549
-0.275,-0.200,-0.925,2.380,-3.662,0.244

-0.635,-0.085,-2.092,-12.512,235.840,-41.260
-0.787,-0.222,-2.366,-40.222,218.079,-47.852
-0.897,-0.422,-2.708,-62.622,198.914,-53.040
-0.871,-0.583,-2.625,-83.740,147.583,-48.828
-0.797,-0.711,-2.243,-100.769,90.637,-37.109
-0.692,-0.757,-1.782,-99.670,40.222,-23.682
-0.562,-0.698,-1.287,-75.989,-5.737,-10.681
-0.469,-0.667,-0.865,-44.983,-37.048,-3.113
-0.361,-0.622,-0.552,-11.841,-50.720,1.465
-0.393,-0.507,-0.336,20.142,-50.171,4.883
-0.341,-0.395,-0.246,51.514,-34.058,9.644
-0.275,-0.231,-0.374,69.824,-1.099,18.921
-0.200,-0.083,-0.540,68.481,26.428,23.499
-0.168,-0.001,-0.617,58.899,40.039,21.118
-0.165,0.035,-0.647,48.767,48.401,16.418
-0.195,0.047,-0.710,36.987,59.143,11.902
-0.239,0.042,-0.857,26.001,72.937,8.301
-0.291,0.019,-1.055,16.541,84.473,4.700
-0.334,-0.015,-1.195,6.897,85.571,1.709
-0.387,-0.057,-1.198,-3.235,76.599,-0.305
-0.391,-0.083,-1.169,-6.958,65.674,-0.305
-0.400,-0.080,-1.175,-3.601,59.326,0.061
-0.391,-0.056,-1.198,3.540,52.612,-0.244
-0.385,-0.009,-1.215,11.719,43.823,-1.343
-0.385,0.005,-1.194,13.489,34.363,-4.211
-0.402,-0.045,-1.139,8.423,26.062,-9.155
-0.420,-0.110,-1.084,3.540,20.752,-12.634
-0.432,-0.140,-1.047,0.916,17.822,-12.878
-0.448,-0.150,-1.033,-1.160,16.663,-11.902
-0.462,-0.183,-1.038,-3.479,15.747,-11.658
-0.474,-0.224,-1.048,-5.554,14.282,-11.047
-0.498,-0.232,-1.110,-8.362,10.864,-9.705
-0.497,-0.256,-1.066,-10.071,3.113,-8.484
-0.493,-0.231,-1.070,-11.230,2.319,-4.211
-0.491,-0.219,-1.122,-15.015,3.906,-1.343
-0.488,-0.226,-1.087,-17.883,0.549,-0.305
-0.491,-0.227,-1.024,-18.921,-2.380,0.549
-0.489,-0.260,-0.988,-19.714,-3.540,0.488
-0.491,-0.281,-0.951,-17.334,-5.554,1.221
-0.479,-0.293,-0.917,-11.230,-8.179,2.747
-0.460,-0.266,-0.899,-2.075,-8.972,5.005
-0.437,-0.223,-0.904,5.188,-8.545,7.141
-0.416,-0.200,-0.891,7.324,-8.728,7.751
-0.397,-0.177,-0.865,6.775,-9.155,8.240
-0.387,-0.167,-0.870,7.019,-7.385,7.996
-0.383,-0.156,-0.879,7.629,-5.432,8.240
-0.370,-0.137,-0.870,7.263,-4.395,8.789
-0.355,-0.126,-0.854,6.165,-3.418,8.911
-0.347,-0.115,-0.858,6.165,-1.465,8.606
-0.342,-0.095,-0.881,6.958,1.038,8.423
-0.335,-0.071,-0.907,6.592,3.235,7.935
-0.331,-0.052,-0.935,5.432,3.906,6.958
-0.336,-0.047,-0.961,3.662,3.967,5.188
-0.341,-0.050,-0.956,2.686,2.502,3.113
-0.345,-0.054,-0.942,2.441,0.854,1.343
-0.355,-0.065,-0.948,2.686,0.366,-0.488
-0.366,-0.088,-0.957,2.869,0.061,-2.197
-0.378,-0.115,-0.954,3.235,-1.343,-3.235
-0.385,-0.130,-0.937,3.967,-2.991,-3.784
-0.390,-0.135,-0.934,3.906,-3.113,-3.540
-0.396,-0.142,-0.953,3.540,-1.892,-3.174
-0.404,-0.146,-0.969,2.502,-1.526,-3.052
-0.411,-0.159,-0.968,-0.061,-2.258,-2.808
-0.419,-0.180,-0.960,-2.441,-2.930,-2.625
-0.423,-0.195,-0.949,-2.502,-3.296,-2.319
-0.422,-0.201,-0.940,-1.465,-3.845,-1.465
-0.422,-0.203,-0.938,0.610,-3.906,-0.366
-0.414,-0.199,-0.932,2.258,-4.456,0.671
-0.411,-0.195,-0.921,3.540,-5.005,1.465
-0.407,-0.187,-0.914,4.333,-4.456,2.319
-0.399,-0.169,-0.911,4.883,-3.601,3.601
-0.391,-0.160,-0.912,5.005,-2.747,4.211
-0.385,-0.155,-0.924,5.066,-2.014,4.272
-0.384,-0.152,-0.932,4.822,-1.770,4.761
-0.383,-0.153,-0.919,4.028,-2.197,5.127
-0.375,-0.143,-0.896,4.089,-2.563,5.554
-0.366,-0.124,-0.892,5.859,-1.404,5.981
-0.354,-0.099,-0.902,7.080,-0.366,6.042
-0.349,-0.087,-0.920,6.775,0.366,5.188
-0.353,-0.090,-0.928,5.859,0.183,3.845
-0.353,-0.101,-0.926,5.249,-0.183,2.563
-0.356,-0.102,-0.930,5.676,-0.183,2.075
-0.357,-0.099,-0.925,5.798,-0.122,2.014
-0.354,-0.095,-0.914,6.165,-0.305,1.465
-0.353,-0.089,-0.914,6.592,0.244,1.099
-0.351,-0.080,-0.932,6.592,1.587,0.488
-0.352,-0.075,-0.941,5.493,2.197,-0.549
-0.356,-0.090,-0.922,2.625,1.648,-1.831
-0.366,-0.123,-0.903,0.916,1.709,-2.930
-0.375,-0.139,-0.904,1.404,3.052,-2.930
-0.382,-0.135,-0.926,2.747,4.761,-2.258
-0.384,-0.128,-0.951,4.028,4.944,-1.892
-0.389,-0.134,-0.956,4.517,3.784,-1.953
-0.397,-0.147,-0.948,4.211,2.441,-2.075
-0.401,-0.149,-0.946,4.333,1.831,-1.648
-0.401,-0.142,-0.952,4.700,1.770,-0.732
-0.399,-0.136,-0.949,3.967,1.587,-0.366
-0.400,-0.140,-0.935,2.075,1.343,-0.305
-0.400,-0.141,-0.931,1.526,1.648,0.183
-0.399,-0.128,-0.933,1.709,2.502,0.854
-0.394,-0.114,-0.938,2.014,3.174,0.854
-0.391,-0.108,-0.937,2.625,2.930,0.427
-0.392,-0.125,-0.937,2.808,2.319,-0.549
-0.395,-0.141,-0.932,2.930,1.465,-1.038
-0.394,-0.140,-0.940,3.784,1.587,0.000
-0.389,-0.118,-0.962,4.822,2.014,1.221
-0.384,-0.101,-0.978,4.517,1.526,1.770
-0.382,-0.090,-0.971,2.747,0.244,1.770
-0.380,-0.090,-0.946,0.366,-1.038,1.221
-0.380,-0.099,-0.913,-1.526,-1.465,0.122
-0.382,-0.116,-0.898,-2.136,-1.038,-0.610
-0.384,-0.124,-0.901,-1.221,0.061,-0.854
-0.387,-0.131,-0.915,-0.183,0.977,-0.854
-0.390,-0.140,-0.924,0.488,1.221,-0.427
-0.391,-0.139,-0.934,0.977,0.916,0.183
-0.393,-0.127,-0.953,1.770,1.282,1.221
-0.391,-0.113,-0.970,2.014,1.282,1.953
-0.390,-0.108,-0.974,0.916,0.549,1.831
-0.388,-0.112,-0.962,-0.183,-0.793,1.404

-0.972,-0.091,-2.449,26.855,281.189,25.635
-1.314,-0.234,-3.212,-20.203,279.358,28.320
-1.291,-0.337,-3.563,-59.998,233.521,39.795
-1.062,-0.205,-3.204,-98.633,143.311,61.462
-0.802,-0.045,-2.479,-115.417,60.547,72.754
-0.633,0.033,-1.952,-99.365,5.737,66.833
-0.524,0.017,-1.420,-68.237,-43.152,48.340
-0.416,-0.082,-0.976,-25.574,-84.351,26.672
-0.382,-0.160,-0.657,12.207,-99.792,11.414
-0.381,-0.218,-0.498,39.490,-90.393,2.502
-0.347,-0.181,-0.539,64.331,-64.392,0.549
-0.300,-0.043,-0.684,77.454,-37.292,3.845
-0.240,0.031,-0.732,68.909,-23.315,2.991
-0.209,0.038,-0.686,50.049,-17.395,-1.404
-0.206,0.025,-0.637,32.532,-9.399,-5.005
-0.218,-0.006,-0.629,17.578,1.892,-8.057
-0.247,-0.040,-0.692,5.676,16.541,-9.705
-0.283,-0.069,-0.815,-4.700,31.067,-9.949
-0.327,-0.102,-0.919,-17.029,41.321,-9.583
-0.349,-0.154,-0.968,-29.480,45.227,-9.094
-0.372,-0.179,-0.987,-33.936,46.509,-7.141
-0.385,-0.170,-1.058,-30.640,48.706,-4.517
-0.398,-0.160,-1.152,-26.611,48.096,-2.991
-0.410,-0.150,-1.221,-22.888,42.114,-2.380
-0.414,-0.145,-1.250,-17.944,32.043,-2.258
-0.412,-0.139,-1.233,-13.245,21.057,-2.258
-0.410,-0.140,-1.206,-9.949,12.329,-2.319
-0.401,-0.149,-1.170,-7.507,5.371,-2.380
-0.388,-0.158,-1.102,-5.066,-1.587,-2.502
-0.375,-0.181,-1.036,-3.296,-6.531,-2.563
-0.365,-0.189,-0.974,-1.343,-9.460,-2.197
-0.345,-0.179,-0.916,1.099,-10.803,-0.549
-0.330,-0.164,-0.870,2.197,-10.559,1.160
-0.318,-0.143,-0.835,2.075,-8.972,2.319
-0.311,-0.125,-0.808,1.770,-6.531,3.235
-0.305,-0.109,-0.801,1.953,-3.418,3.662
-0.302,-0.099,-0.806,2.441,-0.122,3.296
-0.304,-0.093,-0.808,2.991,3.052,2.869
-0.307,-0.095,-0.823,4.272,5.737,1.953
-0.317,-0.096,-0.849,6.409,8.423,1.282
-0.318,-0.102,-0.877,8.057,9.888,0.854
-0.317,-0.105,-0.899,9.460,9.949,0.610
-0.316,-0.097,-0.906,10.315,9.644,0.977
-0.311,-0.069,-0.912,10.742,10.132,2.319
-0.291,-0.025,-0.937,10.559,12.146,3.540
-0.315,0.014,-0.957,8.545,15.503,2.563
-0.317,-0.004,-1.026,6.897,18.372,-0.366
-0.329,-0.008,-1.047,5.127,15.625,-2.014
-0.335,-0.017,-1.049,3.113,11.780,-2.869
-0.343,-0.034,-1.016,1.526,7.446,-4.639
-0.346,-0.055,-0.990,1.526,4.700,-6.287
-0.354,-0.079,-0.970,2.808,4.150,-7.263
-0.363,-0.092,-0.959,3.418,4.211,-7.629
-0.364,-0.092,-0.948,2.991,4.944,-6.775
-0.363,-0.087,-0.942,2.197,6.042,-6.348
-0.366,-0.093,-0.937,0.793,6.531,-6.653
-0.375,-0.110,-0.930,-0.671,6.287,-7.202
-0.386,-0.131,-0.930,-0.610,6.714,-7.568
-0.391,-0.136,-0.936,0.610,7.324,-6.836
-0.393,-0.134,-0.942,1.770,7.996,-5.981
-0.396,-0.130,-0.955,2.380,8.545,-5.432
-0.402,-0.129,-0.973,2.563,8.972,-4.944
-0.406,-0.123,-0.989,1.648,9.033,-4.761
-0.410,-0.133,-1.006,-0.061,7.996,-4.944
-0.417,-0.159,-1.015,-1.709,6.470,-5.127
-0.424,-0.175,-1.007,-2.197,4.517,-4.150
-0.426,-0.171,-1.002,-0.366,2.869,-2.502
-0.423,-0.163,-1.012,2.563,2.014,-1.343
-0.419,-0.141,-1.023,4.700,1.038,-0.061
-0.415,-0.123,-1.031,4.883,-0.122,0.916
-0.412,-0.123,-1.031,3.784,-1.465,0.916
-0.413,-0.133,-1.017,3.052,-3.418,0.916
-0.413,-0.143,-0.989,2.441,-5.310,1.404
-0.405,-0.145,-0.954,2.502,-6.714,2.441
-0.395,-0.134,-0.939,2.686,-6.836,3.784
-0.385,-0.116,-0.937,2.808,-5.737,4.822
-0.376,-0.102,-0.931,3.235,-5.676,5.493
-0.370,-0.096,-0.921,3.357,-5.798,5.798
-0.364,-0.087,-0.911,4.089,-5.676,5.554
-0.354,-0.068,-0.903,4.272,-5.249,5.920
-0.344,-0.059,-0.904,3.967,-4.395,5.188
-0.344,-0.065,-0.913,3.479,-3.723,4.028
-0.347,-0.071,-0.922,3.479,-3.052,3.418
-0.347,-0.063,-0.921,3.784,-2.625,3.601
-0.340,-0.050,-0.924,3.662,-1.831,3.967
-0.336,-0.040,-0.931,3.479,-1.038,3.601
-0.340,-0.042,-0.932,2.380,-1.099,2.563
-0.344,-0.049,-0.941,1.831,-0.916,1.587
-0.346,-0.038,-0.952,1.892,-0.244,1.648
-0.347,-0.033,-0.961,1.892,-0.183,1.038
-0.355,-0.048,-0.957,0.916,-0.671,-0.366
-0.360,-0.072,-0.944,0.366,-1.831,-1.282
-0.364,-0.082,-0.936,0.916,-1.953,-1.587
-0.363,-0.082,-0.936,1.343,-1.465,-1.221
-0.364,-0.081,-0.940,0.610,-0.793,-0.916
-0.365,-0.080,-0.941,0.183,-0.427,-0.977
-0.370,-0.090,-0.940,0.061,-0.488,-1.404
-0.370,-0.103,-0.937,-1.221,-0.549,-1.160
-0.371,-0.099,-0.945,-1.892,0.000,-0.793
-0.371,-0.085,-0.968,-2.075,1.587,0.061
-0.370,-0.080,-0.981,-3.052,1.770,0.366
-0.370,-0.087,-0.969,-3.845,0.305,-0.061
-0.369,-0.095,-0.942,-4.089,-1.343,-0.488
-0.369,-0.103,-0.927,-3.052,-1.831,-0.549
-0.372,-0.110,-0.927,-1.038,-1.648,-0.854
-0.370,-0.111,-0.927,0.671,-1.526,-0.549
-0.367,-0.108,-0.929,1.648,-1.282,0.122
-0.367,-0.106,-0.932,1.953,-0.793,0.488
-0.369,-0.100,-0.941,1.648,-0.183,1.160
-0.366,-0.090,-0.953,0.671,0.671,1.831
-0.360,-0.076,-0.959,-0.183,1.221,2.441
-0.357,-0.068,-0.954,-1.526,0.854,2.075
-0.359,-0.074,-0.949,-2.075,-0.122,1.160
-0.362,-0.080,-0.941,-1.404,-0.549,0.549
-0.363,-0.086,-0.935,-0.610,-0.854,0.000
-0.365,-0.096,-0.936,0.122,-0.610,-0.122
-0.365,-0.095,-0.937,0.916,-0.305,0.183
-0.359,-0.080,-0.942,1.038,0.000,0.916
-0.356,-0.066,-0.956,0.122,0.793,1.282

-0.155,0.490,-1.639,28.625,268.738,-18.127
-0.669,0.389,-2.047,-16.235,286.377,-59.082
-1.007,0.216,-2.712,-25.635,288.818,-86.731
-1.061,0.011,-2.986,-45.715,234.436,-101.379
-1.040,-0.350,-2.834,-84.106,159.119,-109.497
-0.983,-0.760,-2.346,-128.418,93.628,-105.469
-0.858,-1.050,-1.853,-150.146,51.941,-82.703
-0.737,-1.210,-1.477,-143.433,27.649,-52.246
-0.652,-1.181,-1.207,-108.826,7.568,-22.095
-0.566,-0.996,-1.016,-55.847,-10.254,4.456
-0.503,-0.716,-0.961,-9.949,-16.418,25.635
-0.398,-0.415,-0.958,12.817,-15.320,38.757
-0.351,-0.183,-0.979,16.479,-16.052,39.734
-0.293,-0.105,-0.844,12.207,-20.874,31.799
-0.247,-0.105,-0.752,5.981,-16.418,23.987
-0.218,-0.130,-0.708,2.686,-7.446,17.334
-0.198,-0.175,-0.706,1.465,1.465,11.841
-0.196,-0.242,-0.752,0.793,10.559,8.057
-0.209,-0.266,-0.787,-1.465,18.005,8.484
-0.208,-0.262,-0.804,-4.028,23.621,11.353
-0.197,-0.238,-0.839,-5.066,28.809,14.343
-0.182,-0.196,-0.873,-5.615,31.982,16.418
-0.183,-0.158,-0.913,-5.005,33.081,16.846
-0.185,-0.128,-0.948,-2.319,32.532,15.869
-0.186,-0.101,-0.985,0.854,31.799,14.099
-0.190,-0.081,-1.028,2.197,31.250,11.902
-0.190,-0.068,-1.067,1.831,29.358,9.216
-0.196,-0.072,-1.097,0.427,25.574,5.737
-0.205,-0.102,-1.085,-0.366,19.470,1.892
-0.216,-0.128,-1.041,0.488,14.099,-0.366
-0.226,-0.139,-1.041,2.747,12.329,-1.038
-0.223,-0.142,-1.053,4.028,10.620,-1.343
-0.226,-0.144,-1.034,4.333,6.592,-1.709
-0.233,-0.142,-0.991,4.028,2.686,-2.197
-0.227,-0.115,-0.942,2.991,1.038,-2.136
-0.218,-0.100,-0.906,0.427,2.136,-2.808
-0.225,-0.113,-0.873,-3.357,3.723,-5.127
-0.244,-0.156,-0.843,-5.737,5.493,-8.423
-0.257,-0.203,-0.837,-5.005,7.935,-10.376
-0.268,-0.231,-0.833,-2.686,10.132,-10.498
-0.264,-0.237,-0.807,-0.854,11.169,-9.216
-0.260,-0.232,-0.777,0.916,12.512,-7.568
-0.258,-0.224,-0.760,2.808,15.381,-6.531
-0.263,-0.209,-0.781,5.615,19.592,-5.981
-0.268,-0.187,-0.814,7.202,23.987,-5.188
-0.274,-0.180,-0.843,6.409,27.405,-5.615
-0.284,-0.174,-0.880,6.592,30.090,-6.287
-0.297,-0.160,-0.921,7.751,31.616,-6.836
-0.302,-0.155,-0.958,7.874,31.799,-7.996
-0.317,-0.166,-0.983,7.202,30.579,-9.644
-0.329,-0.178,-0.993,6.042,29.175,-10.864
-0.341,-0.183,-1.001,5.676,27.954,-11.108
-0.354,-0.191,-1.016,5.981,27.039,-11.475
-0.364,-0.202,-1.033,6.042,25.452,-11.902
-0.370,-0.211,-1.037,3.662,23.071,-11.841
-0.375,-0.227,-1.032,0.793,20.325,-11.902
-0.380,-0.239,-1.016,-0.061,17.151,-11.475
-0.385,-0.240,-0.977,-0.183,14.038,-10.803
-0.390,-0.236,-0.959,0.671,13.672,-10.010
-0.397,-0.224,-0.975,1.953,15.564,-9.338
-0.406,-0.222,-1.002,2.197,16.968,-9.399
-0.416,-0.227,-1.026,1.343,17.029,-9.827
-0.431,-0.239,-1.044,-0.122,15.808,-10.132
-0.444,-0.268,-1.061,-1.892,13.428,-10.559
-0.463,-0.304,-1.034,-3.174,10.315,-9.888
-0.461,-0.318,-1.039,-2.441,8.606,-7.874
-0.461,-0.331,-1.011,-1.038,5.066,-5.981
-0.457,-0.299,-0.980,0.122,1.892,-2.747
-0.451,-0.271,-0.975,1.892,1.587,-0.732
-0.446,-0.249,-0.985,1.526,2.686,0.305
-0.448,-0.244,-1.000,-0.916,3.174,0.549
-0.452,-0.265,-1.002,-3.540,2.380,0.244
-0.450,-0.286,-0.986,-4.822,0.305,0.732
-0.451,-0.299,-0.978,-3.906,-1.343,1.892
-0.444,-0.299,-0.971,-0.977,-2.808,3.723
-0.434,-0.283,-0.958,2.930,-4.150,5.798
-0.409,-0.235,-0.932,6.714,-5.432,8.057
-0.379,-0.198,-0.922,7.141,-4.883,9.155
-0.370,-0.178,-0.920,4.944,-3.723,8.789
-0.368,-0.171,-0.911,3.418,-3.296,8.118
-0.366,-0.170,-0.912,2.563,-2.686,7.568
-0.363,-0.177,-0.908,1.709,-2.502,6.897
-0.352,-0.179,-0.902,1.953,-3.113,6.470
-0.349,-0.159,-0.898,3.662,-3.357,6.470
-0.341,-0.144,-0.897,4.639,-3.235,6.226
-0.339,-0.134,-0.906,4.456,-2.258,5.310
-0.339,-0.129,-0.922,3.296,-0.977,4.517
-0.339,-0.131,-0.933,1.404,-0.366,3.601
-0.342,-0.133,-0.938,0.061,-0.244,2.625
-0.335,-0.120,-0.934,-1.160,-0.732,1.953
-0.338,-0.128,-0.929,-3.052,-0.854,0.366
-0.350,-0.152,-0.928,-4.272,-0.793,-1.587
-0.361,-0.172,-0.930,-4.700,-0.732,-2.258
-0.367,-0.184,-0.938,-4.272,-0.549,-2.380
-0.373,-0.188,-0.946,-4.395,-0.183,-2.319
-0.377,-0.197,-0.947,-4.700,-0.427,-2.258
-0.376,-0.203,-0.947,-5.066,-1.099,-2.380
-0.406,-0.217,-0.909,-4.517,-1.160,-2.502
-0.396,-0.223,-0.981,-3.418,1.953,-2.075
-0.392,-0.255,-0.982,-3.723,0.000,-2.258
-0.405,-0.252,-0.923,-4.944,-5.005,-1.526
-0.403,-0.254,-0.922,-2.991,-4.089,-0.427
-0.398,-0.241,-0.960,-1.953,-0.977,0.671
-0.387,-0.214,-0.986,-2.930,-0.488,2.502
-0.392,-0.206,-0.955,-4.517,-3.540,2.197
-0.399,-0.221,-0.950,-4.578,-3.845,0.916
-0.406,-0.237,-0.971,-4.395,-3.357,0.366
-0.419,-0.243,-0.986,-3.723,-3.906,0.610
-0.423,-0.257,-1.008,-2.869,-4.272,0.793
-0.419,-0.258,-1.014,-3.906,-5.188,1.770
-0.413,-0.255,-1.009,-5.432,-6.470,3.113
-0.412,-0.256,-1.000,-6.104,-7.812,3.784
-0.413,-0.268,-0.992,-6.836,-9.460,4.272
-0.406,-0.281,-0.971,-7.080,-10.986,4.944
-0.402,-0.276,-0.947,-6.165,-12.207,6.287
-0.399,-0.267,-0.943,-5.066,-11.963,7.568
-0.392,-0.261,-0.970,-3.540,-10.376,8.667
-0.379,-0.234,-0.972,-3.723,-10.071,9.827
-0.360,-0.205,-0.958,-5.676,-10.620,10.254

-0.640,-0.215,-2.030,-32.715,148.132,-16.663
-0.650,-0.209,-2.102,-42.786,123.718,-7.629
-0.656,-0.188,-2.161,-54.260,99.731,-0.610
-0.616,-0.148,-2.051,-67.810,66.650,5.798
-0.520,-0.094,-1.766,-80.139,32.349,11.658
-0.450,-0.084,-1.502,-85.632,8.911,13.794
-0.432,-0.097,-1.325,-80.994,-4.150,11.719
-0.407,-0.128,-1.149,-69.397,-15.625,8.545
-0.387,-0.148,-0.977,-56.580,-23.499,6.287
-0.355,-0.155,-0.852,-43.457,-24.414,5.676
-0.333,-0.154,-0.798,-31.372,-18.799,5.676
-0.306,-0.143,-0.780,-21.118,-11.963,5.737
-0.282,-0.123,-0.757,-13.977,-6.775,5.676
-0.263,-0.100,-0.732,-9.949,-1.648,5.493
-0.247,-0.086,-0.745,-7.935,4.700,4.700
-0.242,-0.085,-0.784,-7.690,11.292,2.991
-0.253,-0.098,-0.833,-9.155,16.907,1.099
-0.266,-0.120,-0.875,-11.902,21.057,0.000
-0.277,-0.135,-0.915,-14.160,24.231,0.061
-0.287,-0.133,-0.969,-15.381,27.161,1.099
-0.294,-0.106,-1.016,-16.663,29.175,2.319
-0.298,-0.079,-1.050,-18.799,29.480,2.686
-0.305,-0.086,-1.074,-21.118,27.588,0.732
-0.320,-0.117,-1.095,-22.217,24.597,-1.648
-0.347,-0.150,-1.155,-20.508,19.653,-3.235
-0.336,-0.165,-1.111,-19.043,10.864,-3.845
-0.341,-0.173,-1.077,-20.203,7.080,-3.113
-0.333,-0.172,-1.065,-20.996,5.493,-2.258
-0.324,-0.152,-1.045,-19.897,3.174,-1.587
-0.321,-0.144,-1.020,-19.775,1.038,-1.892
-0.323,-0.161,-1.003,-20.996,0.061,-2.930
-0.323,-0.186,-0.981,-21.118,-1.343,-4.211
-0.327,-0.207,-0.946,-19.043,-3.296,-4.822
-0.330,-0.223,-0.921,-14.771,-3.845,-4.944
-0.328,-0.235,-0.904,-8.301,-3.540,-4.333
-0.332,-0.237,-0.916,0.000,-2.930,-3.723
-0.324,-0.226,-0.952,6.470,-3.174,-2.747
-0.314,-0.204,-0.932,10.437,-6.470,-2.014
-0.311,-0.179,-0.908,11.780,-7.812,-1.282
-0.305,-0.177,-0.913,11.047,-5.432,-1.404
-0.302,-0.174,-0.929,9.583,-2.869,-1.282
-0.309,-0.173,-0.945,7.507,-1.160,-0.854
-0.314,-0.176,-0.958,4.333,0.305,-0.061
-0.313,-0.174,-0.957,1.099,1.465,0.732
-0.315,-0.175,-0.956,-1.282,2.258,1.099
-0.314,-0.184,-0.967,-1.709,2.258,0.977
-0.322,-0.181,-0.982,-0.366,2.014,1.221
-0.317,-0.166,-0.995,1.404,1.099,1.648
-0.313,-0.155,-0.994,2.625,-0.366,1.648
-0.312,-0.162,-0.984,3.479,-2.014,1.038
-0.314,-0.170,-0.973,4.028,-3.113,0.671
-0.311,-0.167,-0.969,4.333,-3.540,0.977
-0.304,-0.161,-0.966,3.906,-3.357,1.526
-0.305,-0.159,-0.964,2.930,-3.235,1.587
-0.303,-0.154,-0.965,2.136,-2.686,1.831
-0.300,-0.143,-0.957,1.343,-2.319,2.197
-0.293,-0.135,-0.949,-0.122,-2.136,2.197
-0.294,-0.137,-0.944,-1.648,-1.343,1.587
-0.296,-0.147,-0.941,-2.991,-0.977,0.793
-0.301,-0.161,-0.939,-3.113,-0.549,0.366
-0.304,-0.173,-0.935,-2.014,-0.488,0.122
-0.305,-0.176,-0.929,-1.160,-0.732,0.549
-0.307,-0.183,-0.933,-0.183,-0.366,0.854
-0.309,-0.187,-0.946,2.136,-0.183,1.404
-0.311,-0.177,-0.951,4.395,-0.244,2.014
-0.296,-0.145,-0.950,4.639,-0.244,3.479
-0.286,-0.116,-0.955,2.625,0.732,3.784
-0.283,-0.116,-0.961,-0.732,1.587,2.563
-0.294,-0.139,-0.968,-2.991,1.953,0.610
-0.303,-0.164,-0.965,-3.418,1.404,-0.488
-0.308,-0.183,-0.962,-2.930,0.916,-0.488
-0.302,-0.180,-0.945,-2.014,0.000,0.488
-0.298,-0.164,-0.934,-1.221,0.061,1.526
-0.294,-0.158,-0.937,-0.793,1.160,1.709
-0.298,-0.159,-0.946,-1.038,2.258,1.587
-0.303,-0.163,-0.949,-2.136,2.686,1.404
-0.304,-0.158,-0.954,-2.930,3.601,1.587
-0.308,-0.154,-0.959,-3.235,4.089,1.587
-0.302,-0.156,-0.956,-4.028,3.479,1.343
-0.309,-0.159,-0.959,-4.639,2.869,1.038
-0.314,-0.167,-0.965,-3.113,2.258,0.366
-0.316,-0.173,-0.967,-0.916,1.404,0.000
-0.317,-0.176,-0.962,0.427,0.488,0.061
-0.316,-0.177,-0.949,1.587,-0.366,0.183
-0.312,-0.181,-0.944,2.380,-0.549,0.122
-0.313,-0.182,-0.945,2.380,-0.122,0.305
-0.312,-0.172,-0.948,1.404,0.854,1.343
-0.309,-0.154,-0.958,-0.549,2.625,2.380
-0.306,-0.147,-0.961,-3.479,4.028,2.441
-0.305,-0.150,-0.960,-5.981,4.211,2.014
-0.311,-0.158,-0.960,-6.836,4.211,1.343
-0.314,-0.170,-0.961,-6.470,3.784,0.732
-0.318,-0.176,-0.958,-5.371,3.235,0.671
-0.316,-0.177,-0.950,-4.150,2.014,0.427
-0.315,-0.180,-0.954,-2.625,1.343,0.244
-0.317,-0.179,-0.965,-0.427,0.916,0.366
-0.317,-0.172,-0.967,0.366,0.305,0.671
-0.312,-0.165,-0.957,-0.061,0.122,0.793
-0.313,-0.166,-0.952,-1.343,0.366,0.732
-0.314,-0.172,-0.950,-1.892,0.793,0.366
-0.317,-0.175,-0.957,-2.197,1.343,0.427
-0.320,-0.185,-0.960,-2.563,1.099,0.122
-0.321,-0.191,-0.951,-3.540,0.916,0.244
-0.320,-0.192,-0.939,-3.601,0.671,0.916
-0.316,-0.184,-0.933,-3.601,1.099,1.526
-0.314,-0.178,-0.939,-3.235,2.075,1.709
-0.316,-0.184,-0.949,-2.991,2.441,1.282
-0.322,-0.188,-0.953,-2.136,1.892,0.977
-0.321,-0.186,-0.957,-1.404,1.465,1.038
-0.314,-0.181,-0.965,-1.099,1.038,1.465
-0.318,-0.177,-0.972,-0.854,0.671,1.282
-0.317,-0.174,-0.971,-0.671,-0.183,0.977
-0.318,-0.172,-0.969,-1.038,-0.427,0.671
-0.325,-0.178,-0.973,-1.770,-0.488,0.122
-0.331,-0.199,-0.969,-2.808,-0.610,-0.488
-0.332,-0.218,-0.982,-3.174,-0.366,-0.793
-0.348,-0.208,-0.972,-1.892,-0.244,-0.122
-0.357,-0.182,-1.032,-2.014,2.869,0.610
-0.367,-0.189,-1.104,-5.615,4.944,-0.122

-0.595,-0.552,-1.564,11.902,-81.604,-11.658
-0.603,-0.519,-1.571,22.461,-97.656,-3.479
-0.563,-0.411,-1.553,26.001,-111.938,7.446
-0.491,-0.311,-1.535,25.513,-122.498,15.625
-0.440,-0.215,-1.512,20.020,-130.310,19.531
-0.396,-0.167,-1.447,7.568,-137.268,19.897
-0.377,-0.197,-1.368,-4.639,-141.296,16.541
-0.364,-0.283,-1.306,-14.343,-141.724,13.184
-0.354,-0.366,-1.268,-18.799,-138.062,13.245
-0.337,-0.420,-1.277,-13.306,-132.996,17.700
-0.323,-0.383,-1.340,-5.920,-127.075,25.635
-0.327,-0.280,-1.379,2.075,-126.831,33.630
-0.300,-0.218,-1.381,5.859,-131.592,36.194
-0.283,-0.192,-1.417,6.958,-135.925,36.255
-0.295,-0.179,-1.473,9.766,-141.052,34.973
-0.287,-0.135,-1.529,10.620,-149.170,35.034
-0.265,-0.061,-1.514,6.897,-161.682,35.278
-0.268,-0.054,-1.449,-1.892,-173.218,32.532
-0.264,-0.116,-1.350,-11.414,-183.044,28.198
-0.246,-0.144,-1.245,-20.447,-188.538,27.527
-0.227,-0.138,-1.141,-29.480,-189.331,30.762
-0.216,-0.140,-1.053,-38.147,-186.157,33.875
-0.185,-0.140,-0.993,-43.823,-181.396,36.438
-0.171,-0.120,-0.963,-47.180,-174.683,39.063
-0.137,-0.067,-0.939,-46.021,-169.434,41.565
-0.102,0.014,-0.959,-41.748,-163.513,42.419
-0.061,0.046,-0.996,-40.100,-159.607,39.307
-0.039,0.024,-0.955,-46.204,-161.072,33.508
-0.014,-0.002,-0.882,-53.284,-163.025,28.992
0.009,0.025,-0.894,-54.504,-159.424,27.039
0.024,0.069,-0.912,-58.533,-155.640,25.208
0.037,0.033,-0.872,-67.932,-157.410,20.264
0.047,-0.068,-0.801,-76.599,-160.522,14.954
0.056,-0.172,-0.720,-81.299,-162.292,12.878
0.083,-0.200,-0.664,-78.064,-162.292,15.503
0.112,-0.165,-0.658,-70.740,-159.485,20.081
0.150,-0.188,-0.702,-64.758,-156.921,20.996
0.163,-0.248,-0.735,-63.232,-156.372,20.569
0.178,-0.207,-0.718,-61.401,-160.156,24.475
0.198,-0.129,-0.726,-59.448,-162.598,28.931
0.206,-0.158,-0.729,-64.453,-164.062,27.954
0.197,-0.213,-0.636,-74.524,-169.312,27.649
0.245,-0.167,-0.519,-79.651,-174.866,33.569
0.275,-0.118,-0.485,-78.674,-172.852,36.987
0.298,-0.123,-0.546,-73.486,-167.664,35.767
0.302,-0.118,-0.602,-69.336,-166.809,34.485
0.311,-0.088,-0.611,-66.406,-172.363,34.973
0.336,-0.068,-0.588,-64.209,-180.298,35.278
0.359,-0.082,-0.516,-66.223,-188.904,34.363
0.361,-0.111,-0.419,-72.998,-194.153,34.363
0.372,-0.092,-0.380,-77.881,-192.505,36.865
0.399,-0.049,-0.416,-76.477,-188.477,39.978
0.393,-0.009,-0.435,-77.942,-188.538,41.321
0.389,0.015,-0.424,-82.520,-194.824,41.138
0.384,0.034,-0.371,-84.595,-205.200,39.673
0.377,0.031,-0.305,-84.290,-217.163,37.415
0.394,0.005,-0.214,-83.618,-228.943,34.058
0.418,-0.005,-0.071,-86.182,-240.723,32.104
0.432,0.042,0.078,-88.440,-248.657,30.945
0.420,0.099,0.166,-88.074,-248.779,28.320
0.410,0.088,0.233,-89.233,-247.559,22.217
0.385,0.064,0.358,-92.896,-250.305,16.602
0.340,0.066,0.580,-97.900,-256.287,13.550
0.323,0.086,0.845,-97.961,-259.766,11.353
0.346,0.087,1.110,-92.529,-254.761,7.935
0.394,0.070,1.323,-82.825,-239.685,3.174
0.446,0.047,1.435,-69.519,-214.111,-1.526
0.494,0.013,1.471,-55.359,-183.044,-5.798
0.545,-0.003,1.480,-44.922,-155.151,-8.545
0.560,-0.019,1.489,-40.405,-132.568,-11.353
0.568,-0.045,1.534,-41.565,-115.784,-14.282
0.556,-0.130,1.603,-46.326,-103.699,-17.883
0.553,-0.256,1.697,-47.241,-95.215,-19.531
0.567,-0.349,1.799,-39.856,-87.097,-14.954
0.581,-0.347,1.897,-25.391,-76.111,-5.371
0.594,-0.296,1.938,-8.667,-61.523,4.028
0.616,-0.230,1.937,7.568,-44.678,10.986
0.648,-0.178,1.902,20.325,-26.550,15.076
0.665,-0.123,1.870,26.611,-8.484,16.785
0.690,-0.070,1.840,27.954,9.155,16.785
0.710,-0.042,1.789,26.672,28.076,13.611
0.696,-0.055,1.671,22.339,49.072,7.507
0.668,-0.118,1.557,16.113,68.237,0.488
0.625,-0.182,1.433,11.658,86.243,-3.784
0.590,-0.228,1.307,9.399,102.112,-5.493
0.571,-0.259,1.207,7.751,114.319,-5.737
0.559,-0.283,1.122,7.324,123.169,-5.737
0.548,-0.308,1.057,8.240,129.883,-5.737
0.530,-0.328,0.996,12.634,135.254,-4.883
0.520,-0.313,0.944,18.555,139.893,-2.380
0.527,-0.275,0.897,24.292,144.409,0.366
0.533,-0.233,0.837,30.212,149.414,2.625
0.528,-0.204,0.775,36.255,154.236,2.808
0.525,-0.175,0.720,41.260,157.654,2.441
0.525,-0.145,0.663,46.326,161.072,1.770
0.522,-0.112,0.598,51.880,164.734,0.977
0.533,-0.074,0.538,57.556,166.992,-0.061
0.547,-0.030,0.491,62.561,168.762,-1.465
0.563,-0.014,0.449,65.674,170.715,-4.272
0.570,-0.036,0.411,66.345,173.462,-8.850
0.579,-0.083,0.383,66.040,177.307,-13.000
0.597,-0.115,0.346,65.247,183.289,-15.015
0.587,-0.139,0.272,64.819,192.749,-16.174
0.553,-0.141,0.165,64.209,202.759,-16.418
0.514,-0.134,0.058,63.232,209.961,-15.564
0.483,-0.094,-0.032,62.561,212.524,-13.794
0.454,-0.052,-0.089,62.439,211.792,-11.719
0.430,0.031,-0.142,62.134,211.243,-9.155
0.422,0.088,-0.212,62.500,211.548,-9.766
0.405,0.109,-0.289,60.547,210.449,-14.099
0.359,0.100,-0.320,56.885,204.712,-20.020
0.377,0.122,-0.287,57.617,196.472,-24.597
0.408,0.176,-0.313,61.646,195.007,-28.381
0.387,0.151,-0.387,62.317,199.036,-37.292
0.355,0.085,-0.445,60.852,200.745,-46.753
0.315,0.035,-0.525,59.875,202.637,-52.490
0.271,-0.025,-0.595,57.861,202.942,-55.542
0.230,-0.038,-0.602,55.542,199.646,-55.481
0.205,-0.007,-0.613,52.917,198.059,-53.101

-0.635,-0.594,-1.543,-26.978,128.113,-26.794
-0.600,-0.558,-1.489,-16.479,104.126,-12.878
-0.582,-0.508,-1.380,-4.761,81.055,-2.075
-0.541,-0.430,-1.243,5.127,63.293,6.836
-0.493,-0.335,-1.123,13.184,52.795,15.076
-0.459,-0.250,-1.035,22.339,50.659,20.264
-0.438,-0.181,-0.997,29.663,52.490,23.560
-0.432,-0.149,-0.977,34.363,55.237,24.536
-0.422,-0.097,-0.984,38.269,57.190,25.391
-0.406,0.008,-1.008,43.152,57.495,26.428
-0.391,0.104,-1.041,43.457,56.885,24.109
-0.393,0.129,-1.041,33.508,54.321,16.357
-0.403,0.064,-0.986,19.043,48.401,5.615
-0.433,-0.045,-0.927,9.827,42.725,-3.784
-0.478,-0.135,-0.922,7.629,42.542,-8.423
-0.515,-0.183,-0.989,8.789,46.570,-8.667
-0.530,-0.189,-1.092,12.817,49.255,-6.042
-0.545,-0.159,-1.164,9.949,47.607,-2.380
-0.541,-0.123,-1.194,0.366,44.373,0.671
-0.542,-0.089,-1.235,-9.705,42.114,3.113
-0.551,-0.071,-1.253,-18.616,37.842,3.479
-0.553,-0.070,-1.262,-26.733,30.762,1.770
-0.564,-0.106,-1.234,-34.302,18.372,-2.502
-0.570,-0.156,-1.090,-38.147,3.052,-7.019
-0.572,-0.203,-0.995,-34.363,-1.892,-9.094
-0.568,-0.248,-0.963,-25.635,-2.014,-10.132
-0.564,-0.280,-0.954,-14.160,-2.441,-10.010
-0.559,-0.306,-0.928,-3.540,-5.310,-9.277
-0.551,-0.318,-0.887,4.272,-7.996,-7.080
-0.537,-0.299,-0.875,10.681,-7.935,-3.723
-0.513,-0.266,-0.865,15.930,-8.240,-0.610
-0.492,-0.229,-0.856,17.944,-8.057,2.075
-0.479,-0.191,-0.845,16.235,-6.714,4.456
-0.463,-0.153,-0.840,12.939,-4.944,6.042
-0.458,-0.130,-0.859,9.583,-2.502,6.470
-0.461,-0.126,-0.882,6.165,-0.671,5.798
-0.462,-0.126,-0.886,3.540,-0.793,5.371
-0.460,-0.118,-0.890,2.869,-1.526,5.066
-0.462,-0.104,-0.888,3.906,-2.014,4.883
-0.461,-0.099,-0.883,5.493,-2.563,4.272
-0.461,-0.098,-0.880,7.385,-2.991,3.052
-0.466,-0.100,-0.890,8.850,-2.380,2.258
-0.465,-0.096,-0.913,9.644,-1.038,2.136
-0.457,-0.081,-0.931,9.399,-0.366,2.380
-0.454,-0.066,-0.936,7.141,-0.427,2.441
-0.456,-0.071,-0.932,3.967,-0.854,1.709
-0.455,-0.071,-0.920,1.587,-0.793,1.343
-0.449,-0.062,-0.920,-0.549,0.244,1.099
-0.447,-0.066,-0.928,-1.709,0.793,0.183
-0.452,-0.084,-0.925,-2.625,-0.488,-1.465
-0.459,-0.112,-0.908,-2.808,-2.441,-2.808
-0.462,-0.131,-0.875,-2.625,-3.540,-2.930
-0.458,-0.140,-0.856,-1.526,-3.418,-2.686
-0.458,-0.137,-0.850,-0.732,-2.258,-2.380
-0.461,-0.138,-0.855,-0.732,-1.221,-2.075
-0.467,-0.146,-0.864,-1.099,-0.366,-2.197
-0.468,-0.138,-0.871,-0.916,0.854,-1.648
-0.465,-0.126,-0.880,-2.136,2.319,-0.916
-0.469,-0.131,-0.895,-3.540,3.479,-0.977
-0.475,-0.139,-0.908,-3.540,3.601,-1.160
-0.475,-0.128,-0.902,-3.235,2.869,-0.916
-0.472,-0.121,-0.898,-3.723,2.686,-0.610
-0.474,-0.128,-0.897,-4.028,2.747,-1.160
-0.475,-0.146,-0.905,-3.357,2.258,-1.831
-0.482,-0.161,-0.914,-1.404,1.465,-1.770
-0.482,-0.171,-0.910,1.343,0.305,-1.465
-0.475,-0.163,-0.898,3.540,-0.671,-0.061
-0.468,-0.143,-0.894,4.761,-0.549,1.282
-0.457,-0.123,-0.897,4.272,-0.183,2.075
-0.457,-0.118,-0.905,2.930,-0.061,1.770
-0.458,-0.122,-0.895,2.869,-1.221,0.854
-0.462,-0.123,-0.873,3.418,-2.197,0.488
-0.459,-0.119,-0.867,3.296,-1.038,0.671
-0.459,-0.112,-0.886,2.380,0.977,0.916
-0.463,-0.119,-0.902,1.831,1.526,0.427
-0.471,-0.135,-0.899,1.465,0.916,0.000
-0.471,-0.133,-0.872,1.526,-0.061,0.244
-0.464,-0.117,-0.863,1.892,0.305,0.854
-0.467,-0.115,-0.890,1.953,2.136,0.732
-0.473,-0.120,-0.910,2.319,2.625,0.061
-0.476,-0.132,-0.903,2.014,1.526,-0.183
-0.476,-0.142,-0.883,1.892,0.549,-0.183
-0.473,-0.136,-0.869,2.808,0.671,0.610
-0.469,-0.125,-0.865,4.517,0.977,1.221
-0.467,-0.113,-0.875,5.676,1.953,1.587
-0.464,-0.105,-0.888,5.676,2.441,1.343
-0.466,-0.096,-0.895,5.005,2.502,0.854
-0.465,-0.092,-0.898,4.578,2.258,0.244
-0.470,-0.098,-0.909,4.272,2.258,-0.610
-0.476,-0.110,-0.922,3.479,2.502,-1.343
-0.479,-0.118,-0.931,2.808,2.014,-1.404
-0.480,-0.119,-0.933,2.930,1.160,-1.221
-0.477,-0.114,-0.925,2.747,0.488,-0.793
-0.470,-0.108,-0.909,1.465,-0.488,-0.427
-0.468,-0.105,-0.901,-0.061,-0.549,-0.305
-0.475,-0.111,-0.901,-1.404,-0.244,-0.671
-0.478,-0.119,-0.901,-1.953,-0.488,-1.038
-0.479,-0.124,-0.903,-2.136,-0.488,-0.854
-0.478,-0.124,-0.902,-1.831,-0.427,-0.671
-0.479,-0.121,-0.901,-0.549,-1.099,-0.366
-0.481,-0.128,-0.889,0.549,-1.770,-0.671
-0.478,-0.136,-0.864,2.075,-2.380,-0.793
-0.474,-0.124,-0.858,2.930,-1.160,0.061
-0.466,-0.112,-0.877,2.319,1.099,0.732
-0.461,-0.100,-0.883,1.038,2.014,1.038
-0.467,-0.102,-0.879,-0.854,1.343,0.427
-0.474,-0.118,-0.884,-2.197,1.831,-0.366
-0.476,-0.120,-0.902,-2.075,2.747,-0.366
-0.477,-0.106,-0.933,-1.343,3.296,0.366
-0.478,-0.095,-0.957,-1.892,3.235,0.732
-0.478,-0.094,-0.955,-3.113,1.709,0.305
-0.477,-0.096,-0.932,-4.150,-0.366,-0.366
-0.476,-0.108,-0.909,-4.517,-1.831,-1.160
-0.482,-0.125,-0.899,-4.211,-2.014,-1.831
-0.485,-0.142,-0.900,-3.845,-1.892,-2.136
-0.491,-0.158,-0.902,-3.296,-2.258,-2.014
-0.490,-0.169,-0.892,-3.052,-3.174,-1.587
-0.493,-0.176,-0.888,-3.174,-3.418,-0.671
-0.495,-0.175,-0.894,-2.441,-2.808,0.610

-0.732,-0.388,-1.512,-16.907,-49.561,-9.766
-0.762,-0.469,-1.534,-13.184,-66.589,-11.230
-0.806,-0.526,-1.609,-3.662,-82.581,-9.460
-0.800,-0.552,-1.716,4.822,-99.915,-4.272
-0.761,-0.537,-1.665,2.502,-123.047,2.991
-0.729,-0.463,-1.520,-7.690,-145.508,11.841
-0.672,-0.365,-1.372,-19.043,-162.537,20.630
-0.634,-0.282,-1.276,-25.208,-170.715,26.062
-0.625,-0.221,-1.216,-27.649,-173.828,28.992
-0.601,-0.208,-1.149,-32.104,-174.866,29.114
-0.546,-0.248,-1.077,-35.583,-173.340,27.649
-0.526,-0.203,-1.038,-29.053,-166.565,27.344
-0.493,-0.334,-1.127,-14.709,-157.471,22.583
-0.480,-0.277,-1.303,-15.503,-151.550,24.780
-0.484,-0.255,-1.410,-6.409,-158.813,25.635
-0.495,-0.243,-1.424,2.991,-172.729,23.010
-0.472,-0.265,-1.415,9.705,-183.838,21.790
-0.457,-0.288,-1.461,9.094,-187.317,22.278
-0.448,-0.272,-1.532,3.967,-186.646,26.733
-0.428,-0.233,-1.533,-6.287,-188.721,33.325
-0.391,-0.192,-1.490,-22.095,-193.054,38.757
-0.367,-0.158,-1.488,-32.410,-193.542,41.077
-0.366,-0.119,-1.510,-33.691,-194.702,42.114
-0.367,-0.149,-1.479,-36.133,-200.073,40.527
-0.388,-0.255,-1.400,-40.161,-208.801,38.086
-0.409,-0.334,-1.324,-36.804,-219.299,40.161
-0.409,-0.303,-1.286,-25.513,-228.760,48.035
-0.394,-0.219,-1.240,-15.869,-238.586,56.396
-0.357,-0.192,-1.134,-12.695,-249.451,60.974
-0.333,-0.142,-1.019,-12.451,-258.362,64.026
-0.301,-0.065,-0.973,-12.817,-260.254,68.542
-0.228,0.060,-0.864,-20.508,-260.559,73.486
-0.141,0.212,-0.704,-34.058,-261.597,74.951
-0.104,0.303,-0.609,-49.072,-254.761,68.726
-0.057,0.304,-0.601,-65.979,-244.202,57.495
-0.035,0.212,-0.581,-87.708,-233.948,43.701
-0.055,0.133,-0.536,-99.609,-229.187,35.583
0.053,0.087,-0.497,-101.135,-227.417,33.569
0.085,0.039,-0.408,-105.652,-224.731,32.227
0.122,-0.054,-0.265,-113.220,-224.487,28.503
0.166,-0.182,-0.192,-108.765,-220.032,27.588
0.175,-0.256,-0.158,-104.675,-206.055,30.579
0.299,-0.109,-0.235,-85.388,-193.359,41.626
0.373,0.085,-0.294,-66.284,-187.988,50.476
0.400,0.130,-0.310,-68.848,-185.364,45.227
0.382,0.065,-0.276,-80.688,-183.960,33.691
0.404,-0.001,-0.228,-84.290,-184.082,27.283
0.417,-0.040,-0.181,-80.566,-185.120,25.879
0.407,-0.060,-0.172,-80.444,-180.786,25.330
0.423,-0.037,-0.203,-78.125,-174.255,26.978
0.447,0.038,-0.239,-70.801,-171.814,29.846
0.471,0.083,-0.229,-70.129,-174.133,29.602
0.479,0.068,-0.161,-76.233,-179.687,24.048
0.462,0.046,-0.088,-81.299,-183.899,18.555
0.445,-0.007,-0.053,-80.933,-183.838,14.160
0.438,-0.099,-0.026,-77.148,-184.143,10.559
0.446,-0.173,0.040,-72.327,-188.416,11.108
0.465,-0.182,0.138,-67.993,-194.275,15.869
0.481,-0.108,0.230,-66.345,-195.374,21.973
0.504,-0.054,0.296,-67.566,-191.650,24.658
0.554,-0.060,0.362,-68.237,-185.974,22.522
0.578,-0.056,0.450,-70.801,-183.472,20.508
0.576,-0.099,0.540,-75.989,-182.129,18.005
0.582,-0.142,0.643,-76.050,-179.016,16.724
0.597,-0.098,0.702,-67.932,-171.570,20.630
0.608,0.004,0.717,-60.120,-160.645,25.269
0.610,0.080,0.736,-59.509,-149.414,25.208
0.611,0.111,0.794,-64.148,-141.479,20.935
0.622,0.116,0.880,-67.993,-135.498,15.625
0.596,0.140,0.942,-71.838,-125.977,11.169
0.574,0.120,0.955,-76.050,-111.938,5.859
0.559,0.036,0.978,-78.369,-101.013,0.000
0.547,-0.056,1.055,-78.857,-97.839,-2.808
0.541,-0.147,1.142,-76.416,-97.900,-2.869
0.527,-0.211,1.253,-68.909,-97.534,-1.038
0.531,-0.222,1.377,-56.335,-96.497,5.188
0.563,-0.178,1.488,-39.795,-93.079,13.184
0.601,-0.131,1.543,-21.973,-86.060,18.799
0.621,-0.099,1.599,-6.104,-77.332,21.118
0.644,-0.046,1.669,7.629,-69.458,23.132
0.678,0.025,1.742,19.409,-59.875,24.475
0.705,0.069,1.774,26.184,-45.654,22.766
0.721,0.066,1.755,29.663,-27.344,18.311
0.741,0.064,1.725,29.419,-8.728,13.977
0.750,0.072,1.709,25.818,9.033,10.315
0.749,0.072,1.681,20.447,28.748,6.287
0.730,0.049,1.589,14.587,52.368,1.282
0.704,0.023,1.476,8.057,75.195,-3.357
0.676,-0.008,1.355,3.845,92.896,-8.057
0.637,-0.045,1.235,1.831,106.506,-12.085
0.595,-0.084,1.120,1.953,116.211,-14.954
0.571,-0.121,1.043,4.089,121.399,-16.418
0.552,-0.146,1.006,8.545,123.108,-16.724
0.545,-0.173,0.970,15.442,124.634,-16.296
0.547,-0.193,0.922,24.719,127.014,-15.015
0.555,-0.164,0.888,34.790,129.639,-11.841
0.577,-0.100,0.866,42.847,133.118,-7.874
0.601,-0.037,0.834,48.340,138.184,-6.042
0.619,0.007,0.792,51.453,144.165,-7.141
0.624,0.041,0.746,54.749,150.269,-10.315
0.625,0.059,0.696,58.167,155.884,-14.404
0.628,0.054,0.636,61.218,160.889,-18.860
0.629,0.044,0.560,64.270,165.955,-22.949
0.620,0.005,0.506,65.125,168.945,-26.794
0.612,-0.022,0.469,65.613,172.058,-27.710
0.616,-0.036,0.430,68.787,176.453,-27.100
0.631,-0.015,0.384,71.289,182.617,-25.635
0.645,0.005,0.284,72.998,191.833,-25.085
0.642,-0.014,0.167,70.801,200.439,-27.283
0.634,-0.032,0.072,67.993,205.261,-28.625
0.619,-0.031,0.003,64.758,207.458,-28.259
0.595,-0.031,-0.055,59.570,209.290,-27.710
0.575,-0.021,-0.112,54.871,211.975,-26.733
0.542,0.036,-0.170,50.842,215.698,-25.024
0.479,0.073,-0.232,43.396,219.849,-24.841
0.462,0.029,-0.252,31.921,221.313,-28.503
0.487,-0.062,-0.295,24.109,221.619,-33.203
0.454,-0.169,-0.360,24.231,221.863,-37.170
0.414,-0.196,-0.378,28.137,217.773,-35.889


