aX,aY,aZ,gX,gY,gZ
0.658,-0.844,-1.345,20.386,45.227,13.611
0.665,-0.811,-1.415,10.620,35.461,25.330
0.666,-0.747,-1.442,7.019,22.461,35.278
0.638,-0.779,-1.496,2.625,15.381,40.161
0.617,-0.755,-1.515,5.859,8.850,45.227
0.587,-0.606,-1.523,15.137,1.038,53.040
0.545,-0.574,-1.558,14.221,-2.075,53.528
0.520,-0.505,-1.650,12.939,-1.587,56.335
0.519,-0.337,-1.728,18.005,-1.099,60.303
0.495,-0.134,-1.778,32.227,-3.540,60.242
0.473,0.036,-1.846,47.668,-6.958,49.866
0.422,0.064,-1.902,50.903,-11.963,31.555
0.365,-0.031,-1.906,45.837,-20.203,14.526
0.314,-0.069,-1.874,37.231,-30.518,7.446
0.251,-0.043,-1.857,28.870,-40.833,5.737
0.188,0.062,-1.883,18.799,-52.795,7.141
0.116,0.209,-1.913,5.554,-70.618,6.165
0.082,0.165,-1.874,-1.343,-92.834,-2.808
0.057,0.270,-1.753,-5.066,-115.906,-12.573
0.025,0.580,-1.637,-0.061,-136.719,-14.526
-0.064,0.744,-1.470,10.986,-158.386,-35.400
-0.159,0.748,-1.209,11.475,-183.716,-71.289
-0.284,0.322,-0.828,8.484,-207.397,-112.854
-0.422,-0.129,-0.362,4.578,-226.379,-139.832
-0.575,-0.508,-0.057,-5.493,-231.812,-149.780
-0.676,-0.631,0.030,-15.747,-228.455,-148.804
-0.825,-0.577,0.028,-14.404,-231.628,-145.996
-0.943,-0.405,0.081,2.930,-245.728,-147.766
-1.117,-0.549,0.427,22.827,-278.076,-168.335
-1.274,-0.948,0.929,41.321,-316.040,-196.777
-1.354,-1.386,1.611,49.500,-348.450,-213.928
-1.241,-1.761,2.287,46.997,-365.356,-223.999
-0.949,-2.121,2.761,53.406,-348.022,-224.304
-0.519,-2.229,2.911,78.735,-298.767,-210.510
-0.152,-2.119,2.525,121.155,-229.736,-191.895
0.130,-2.175,1.689,143.372,-165.283,-179.016
0.293,-2.799,0.962,115.845,-145.935,-167.175
0.308,-3.686,0.575,52.795,-172.974,-120.178
0.271,-4.000,0.654,-28.198,-223.206,-10.254
0.224,-2.995,1.021,-104.797,-267.700,161.804
0.241,-1.129,1.418,-145.752,-284.302,319.946
0.440,0.463,1.790,-177.307,-272.461,388.672
0.271,-4.000,0.654,-28.198,-223.206,-10.254
0.224,-2.995,1.021,-104.797,-267.700,161.804
0.241,-1.129,1.418,-145.752,-284.302,319.946
0.440,0.463,1.790,-177.307,-272.461,388.672
0.648,1.339,2.222,-184.387,-245.239,368.103
0.797,1.386,2.554,-171.631,-196.472,283.630
0.836,1.126,2.562,-141.602,-122.742,187.622
0.795,0.916,2.294,-100.952,-41.199,114.929
0.704,0.518,1.889,-62.622,28.625,50.781
0.616,0.152,1.580,-39.795,76.355,2.991
0.523,-0.187,1.383,-31.982,104.126,-27.405
0.411,-0.661,1.255,-39.612,123.230,-47.668
0.300,-1.236,1.161,-53.467,134.155,-53.955
0.164,-1.651,1.139,-62.622,137.207,-38.818
0.016,-1.814,0.893,-69.214,143.799,-8.179
-0.087,-1.809,0.598,-75.256,142.578,24.414
-0.140,-1.713,0.567,-76.843,118.103,55.664
-0.172,-1.472,0.747,-81.238,86.548,83.496
-0.169,-1.132,0.804,-93.140,72.449,102.478
-0.142,-0.855,0.753,-103.394,69.397,106.140
-0.092,-0.690,0.812,-104.431,62.927,95.520
-0.068,-0.607,0.924,-100.342,57.922,78.491
-0.039,-0.571,1.053,-91.980,61.523,60.486
0.041,-0.520,1.049,-80.566,76.172,46.570
0.092,-0.490,0.914,-64.880,94.421,32.593
0.138,-0.458,0.732,-54.138,107.056,22.156
0.172,-0.486,0.563,-55.664,110.413,14.465
0.297,-0.426,0.545,-60.303,104.248,11.536
0.391,-0.364,0.564,-68.298,100.098,7.812
0.464,-0.431,0.679,-78.369,95.276,-1.282
0.527,-0.563,0.777,-89.783,98.633,-10.315
0.594,-0.641,0.796,-98.938,111.267,-16.724
0.684,-0.648,0.670,-97.717,130.737,-20.691
0.663,-0.651,0.536,-79.956,143.494,-23.499
0.653,-0.586,0.680,-58.594,145.630,-24.841
0.639,-0.562,0.587,-39.673,166.809,-29.419
0.559,-0.522,0.018,-23.254,204.102,-31.067
0.603,-0.425,-0.482,-25.085,217.712,-32.288
0.735,-0.265,-0.535,-40.100,195.984,-33.875
0.833,-0.063,-0.401,-44.617,171.692,-37.598
0.891,0.053,-0.440,-39.001,171.509,-51.331
0.813,-0.260,-0.704,-41.199,184.082,-82.703
0.662,-0.755,-0.845,-48.462,180.908,-108.093
0.698,-1.030,-1.080,-47.974,173.523,-108.643
0.718,-1.165,-1.219,-39.551,157.776,-95.642
0.757,-1.112,-1.181,-29.053,130.371,-75.378
0.750,-1.011,-1.037,-31.799,110.596,-52.551
0.715,-0.930,-1.032,-41.931,109.619,-35.217
0.681,-0.869,-1.158,-46.936,121.094,-25.024
0.677,-0.822,-1.239,-41.504,130.005,-20.935
0.617,-0.900,-1.306,-33.691,136.414,-22.827
0.538,-1.128,-1.337,-22.034,144.165,-28.748
0.420,-1.344,-1.396,-3.662,157.471,-27.344
0.253,-1.374,-1.610,13.489,174.316,-12.756
0.129,-1.202,-1.965,15.198,193.481,7.507
0.060,-1.000,-2.455,31.555,197.632,22.888
0.085,-0.736,-2.662,40.283,169.739,35.034
0.189,-0.401,-2.602,50.232,118.835,43.213
0.295,-0.172,-2.568,38.818,71.045,44.373
0.411,-0.154,-2.418,14.526,23.437,37.292
0.515,-0.253,-1.948,-2.686,-32.288,27.466
0.623,-0.453,-1.355,-7.874,-82.214,20.020
0.723,-0.644,-0.620,-7.385,-117.188,18.860
0.841,-0.677,0.152,0.000,-132.812,26.123
0.943,-0.614,0.714,12.634,-118.469,33.936
1.001,-0.487,0.916,23.865,-76.416,37.598
1.024,-0.367,0.811,28.259,-24.231,36.499
1.007,-0.257,0.538,26.245,18.188,32.959
0.977,-0.211,0.231,20.996,44.556,25.757
0.929,-0.239,-0.041,15.808,57.495,16.052
0.891,-0.336,-0.218,9.644,59.937,6.653
0.840,-0.443,-0.353,4.272,58.899,1.038
0.786,-0.543,-0.512,-1.587,59.204,-1.709
0.744,-0.664,-0.644,-6.836,57.129,-2.319
0.702,-0.754,-0.736,-8.850,51.880,0.305
0.681,-0.781,-0.765,-9.949,44.678,7.263
0.651,-0.741,-0.776,-10.681,38.025,15.625
0.646,-0.604,-0.827,-11.047,34.241,23.010
0.608,-0.500,-0.918,-11.597,31.311,25.757
0.615,-0.431,-0.971,-10.010,24.048,23.193
0.606,-0.412,-0.956,-5.615,11.963,18.311

0.563,-0.725,-1.387,88.013,5.371,-37.048
0.563,-0.782,-1.395,96.680,6.226,-35.767
0.570,-0.777,-1.379,99.121,6.653,-32.898
0.580,-0.701,-1.340,94.666,6.836,-27.832
0.548,-0.729,-1.301,86.548,6.897,-27.405
0.510,-0.781,-1.306,74.158,10.254,-27.283
0.477,-0.683,-1.366,65.674,14.221,-21.301
0.420,-0.531,-1.432,61.646,14.404,-16.602
0.358,-0.382,-1.507,58.716,10.132,-18.372
0.303,-0.208,-1.587,52.979,3.296,-23.987
0.221,-0.099,-1.685,46.082,-7.080,-33.997
0.096,-0.117,-1.804,36.194,-22.400,-48.462
-0.026,-0.247,-1.850,25.757,-46.631,-62.988
-0.136,-0.353,-1.852,25.513,-77.087,-72.754
-0.240,-0.252,-1.748,25.696,-110.962,-73.975
-0.379,-0.369,-1.723,37.231,-140.747,-89.966
-0.485,-0.479,-1.586,51.758,-174.194,-107.849
-0.621,-0.721,-1.382,73.303,-210.693,-121.277
-0.714,-0.970,-0.972,98.511,-249.878,-132.446
-0.793,-1.162,-0.469,119.873,-286.621,-137.390
-0.882,-1.131,-0.162,132.874,-303.528,-134.705
-0.973,-1.029,0.031,138.855,-312.561,-131.348
-1.123,-1.131,0.223,139.526,-330.200,-139.648
-1.257,-1.294,0.463,139.648,-358.398,-150.696
-1.437,-1.448,0.835,145.020,-393.982,-155.640
-1.584,-1.848,1.480,152.649,-436.035,-160.339
-1.583,-2.554,2.469,163.696,-482.361,-169.006
-1.281,-3.235,3.503,169.128,-499.634,-164.917
-0.664,-3.385,3.924,138.977,-444.031,-128.479
-0.110,-2.764,2.982,98.083,-317.749,-55.420
0.170,-2.146,1.613,72.937,-223.206,12.573
0.463,-1.853,1.082,42.053,-230.713,58.350
0.724,-1.546,1.508,15.747,-295.227,112.732
0.921,-1.113,2.033,-23.926,-331.726,177.612
1.087,-0.568,2.593,-79.529,-326.416,236.877
1.117,0.384,3.056,-117.188,-287.659,285.645
1.021,1.541,3.064,-132.263,-213.562,301.208
0.969,2.215,2.653,-146.301,-115.601,249.329
0.958,2.126,2.334,-132.996,-35.278,142.639
0.895,1.755,2.316,-94.360,14.771,27.466
0.724,1.056,2.371,-59.998,61.218,-63.538
0.485,0.374,2.172,-42.725,120.667,-130.493
0.259,-0.347,1.878,-37.170,174.255,-170.471
0.036,-1.178,1.654,-38.696,204.285,-193.054
-0.124,-2.048,1.393,-46.814,218.689,-191.833
-0.182,-2.805,1.087,-64.209,221.252,-162.537
-0.225,-3.141,0.793,-90.637,209.412,-102.783
-0.240,-2.917,0.480,-123.657,185.303,-23.193
-0.248,-2.360,0.365,-155.640,143.921,44.922
-0.275,-1.838,0.549,-182.983,93.933,83.191
-0.241,-1.336,0.936,-207.397,54.138,97.351
-0.098,-0.768,1.281,-215.210,39.673,95.825
0.079,-0.268,1.522,-203.979,50.354,73.853
0.180,-0.078,1.633,-174.988,81.177,30.090
0.226,-0.185,1.577,-138.794,125.122,-21.790
0.230,-0.326,1.356,-103.149,172.791,-62.988
0.182,-0.431,0.933,-77.881,219.177,-87.341
0.137,-0.652,0.416,-65.491,253.479,-104.187
0.131,-0.978,-0.036,-62.622,267.395,-113.220
0.183,-1.248,-0.322,-62.195,259.705,-108.032
0.252,-1.440,-0.456,-63.354,239.624,-91.919
0.382,-1.447,-0.526,-62.439,216.858,-69.763
0.446,-1.300,-0.494,-60.120,194.214,-46.265
0.499,-1.085,-0.454,-60.486,178.589,-27.954
0.036,-1.178,1.654,-38.696,204.285,-193.054
-0.124,-2.048,1.393,-46.814,218.689,-191.833
-0.182,-2.805,1.087,-64.209,221.252,-162.537
-0.225,-3.141,0.793,-90.637,209.412,-102.783
-0.240,-2.917,0.480,-123.657,185.303,-23.193
-0.248,-2.360,0.365,-155.640,143.921,44.922
-0.275,-1.838,0.549,-182.983,93.933,83.191
-0.241,-1.336,0.936,-207.397,54.138,97.351
-0.098,-0.768,1.281,-215.210,39.673,95.825
0.079,-0.268,1.522,-203.979,50.354,73.853
0.180,-0.078,1.633,-174.988,81.177,30.090
0.226,-0.185,1.577,-138.794,125.122,-21.790
0.230,-0.326,1.356,-103.149,172.791,-62.988
0.182,-0.431,0.933,-77.881,219.177,-87.341
0.137,-0.652,0.416,-65.491,253.479,-104.187
0.131,-0.978,-0.036,-62.622,267.395,-113.220
0.183,-1.248,-0.322,-62.195,259.705,-108.032
0.252,-1.440,-0.456,-63.354,239.624,-91.919
0.382,-1.447,-0.526,-62.439,216.858,-69.763
0.446,-1.300,-0.494,-60.120,194.214,-46.265
0.499,-1.085,-0.454,-60.486,178.589,-27.954
-0.147,-1.021,-2.885,12.329,173.889,10.437
-0.042,-0.807,-2.736,-20.874,98.694,43.457
0.094,-0.482,-2.471,-38.269,31.067,66.589
0.204,-0.224,-1.965,-42.908,-24.170,72.266
0.335,-0.077,-1.406,-37.964,-61.646,63.293
0.429,-0.069,-0.965,-27.588,-75.745,46.326
0.490,-0.204,-0.643,-13.062,-74.585,26.001
0.510,-0.409,-0.394,-0.305,-67.200,9.521
0.506,-0.615,-0.218,5.005,-54.382,0.977
0.514,-0.708,-0.082,6.714,-39.246,1.709
0.536,-0.630,-0.004,11.230,-22.949,8.118
0.561,-0.473,-0.081,13.916,-2.991,13.123
0.595,-0.318,-0.261,11.902,14.160,12.878
0.620,-0.236,-0.446,8.484,22.339,7.507
0.622,-0.277,-0.600,4.028,22.095,-2.380
0.619,-0.450,-0.639,-0.244,13.611,-13.000
0.607,-0.610,-0.572,-4.211,1.526,-18.066
0.592,-0.727,-0.468,-8.362,-6.775,-15.930
0.574,-0.746,-0.409,-10.498,-8.911,-9.094
0.575,-0.679,-0.416,-10.376,-6.042,-2.136
0.572,-0.621,-0.447,-8.240,-2.319,1.465
0.577,-0.613,-0.480,-5.432,0.000,0.610
0.578,-0.653,-0.550,-2.747,2.563,-1.709
0.572,-0.710,-0.638,-1.160,3.540,-3.174
0.568,-0.767,-0.687,-1.587,-0.183,-3.052
0.573,-0.805,-0.681,-4.456,-7.141,-1.404
0.579,-0.828,-0.670,-9.216,-14.099,2.319
0.579,-0.826,-0.682,-14.282,-19.409,7.141
0.594,-0.796,-0.644,-16.479,-26.123,12.390
0.605,-0.772,-0.512,-14.221,-33.936,16.357
0.627,-0.758,-0.335,-10.437,-38.269,18.982
0.644,-0.697,-0.225,-6.958,-34.119,21.912
0.663,-0.588,-0.198,-3.540,-23.621,24.109
0.669,-0.505,-0.223,-0.061,-12.207,22.034

-0.522,-0.338,-2.242,-104.431,15.076,-87.708
-0.675,-0.383,-2.588,-127.319,4.639,-93.506
-0.820,-0.409,-2.861,-134.827,-24.292,-94.788
-1.092,-0.431,-3.074,-131.042,-70.496,-97.351
-1.243,-0.344,-3.187,-120.178,-123.047,-99.121
-1.470,-0.439,-2.965,-98.511,-192.078,-105.164
-1.597,-0.518,-2.797,-70.190,-256.897,-114.441
-1.682,-0.503,-2.421,-24.780,-322.815,-121.338
-1.756,-0.768,-1.568,24.109,-405.762,-137.390
-1.911,-1.275,-0.259,77.759,-491.699,-156.433
-2.061,-1.831,1.583,120.483,-564.514,-159.485
-2.045,-1.754,3.239,135.010,-577.148,-132.385
-1.937,-1.147,3.939,125.183,-493.652,-91.980
-1.897,-0.815,3.707,114.075,-379.944,-93.384
-1.672,-0.829,3.136,113.037,-311.523,-138.489
-1.306,-1.171,3.045,103.271,-309.448,-190.430
-0.610,-1.874,3.541,83.374,-339.905,-238.159
0.155,-2.917,3.999,51.697,-348.572,-265.137
0.790,-4.000,4.000,7.751,-316.833,-251.892
1.154,-4.000,4.000,-58.533,-261.902,-175.659
1.224,-4.000,4.000,-128.479,-188.354,-24.597
0.965,-3.977,3.791,-163.879,-90.332,174.927
0.429,-1.960,3.011,-166.931,19.043,332.153
-0.021,-0.337,2.005,-156.189,108.459,381.348
-0.235,0.326,1.237,-135.803,145.081,332.092
-0.315,0.215,1.021,-107.849,132.568,239.014
-0.360,-0.211,1.224,-75.134,106.873,156.006
-0.399,-0.539,1.380,-46.265,103.027,105.591
-0.433,-0.761,1.239,-27.466,121.887,77.332
-0.422,-0.992,0.927,-15.808,140.076,58.716
-0.411,-1.246,0.783,-6.042,137.390,47.852
-0.404,-1.440,0.790,1.282,123.047,49.438
-0.396,-1.478,0.729,0.732,114.990,63.354
-0.354,-1.352,0.593,-9.155,113.098,81.360
-0.301,-1.120,0.450,-22.034,108.582,96.252
-0.190,-0.832,0.272,-33.752,104.370,104.309
-0.014,-0.490,0.215,-40.161,97.107,104.370
0.145,-0.203,0.115,-40.161,95.093,94.360
0.318,-0.013,-0.090,-38.452,101.440,73.059
0.473,0.010,-0.203,-32.166,103.333,43.091
0.552,-0.144,-0.171,-19.287,99.487,10.620
0.581,-0.365,-0.261,-5.920,107.239,-15.808
0.558,-0.635,-0.597,1.526,127.014,-33.081
0.568,-0.908,-0.931,4.822,137.634,-38.879
0.625,-1.023,-1.141,9.399,132.690,-30.762
0.702,-0.908,-1.249,14.526,120.789,-12.512
0.758,-0.711,-1.333,14.404,110.352,3.723
0.781,-0.631,-1.383,8.545,100.342,9.521
0.797,-0.624,-1.395,2.563,88.928,8.850
0.819,-0.616,-1.361,1.404,76.477,6.470
0.813,-0.633,-1.342,5.554,66.345,2.441
0.791,-0.700,-1.336,8.972,58.105,-1.465
0.764,-0.764,-1.288,7.080,49.988,-2.014
0.758,-0.817,-1.224,4.395,42.419,1.038
0.743,-0.745,-1.129,2.258,36.194,9.033
0.744,-0.674,-0.970,2.747,29.907,14.709
0.735,-0.605,-0.980,3.845,34.058,15.747
0.738,-0.519,-0.977,5.127,36.926,14.954
0.731,-0.478,-0.883,8.789,33.813,10.864
0.719,-0.480,-0.877,11.780,36.133,3.967
0.705,-0.515,-0.891,13.000,39.246,-2.502
0.689,-0.583,-0.848,11.597,37.537,-7.568
0.666,-0.662,-0.848,6.775,37.231,-9.338
0.643,-0.676,-0.865,1.831,36.133,-6.958
0.643,-0.676,-0.829,0.122,29.846,-4.639
0.653,-0.691,-0.803,-0.183,22.339,-4.333
0.667,-0.718,-0.732,-2.258,12.939,-3.906
0.675,-0.761,-0.587,-5.859,2.136,-3.235
0.693,-0.817,-0.408,-8.057,-5.249,-2.197
0.710,-0.830,-0.211,-7.141,-8.240,0.732
0.712,-0.802,-0.079,-4.578,-4.822,5.066
0.709,-0.786,-0.001,-3.113,2.930,7.629
0.692,-0.760,0.043,-2.319,12.146,8.728
0.688,-0.700,0.026,-0.610,22.766,9.033
0.678,-0.641,-0.047,3.479,33.081,7.263
0.651,-0.613,-0.140,8.789,41.016,3.113
0.627,-0.632,-0.224,13.489,45.105,-1.770
0.616,-0.681,-0.315,16.663,46.570,-5.859
0.586,-0.738,-0.423,16.663,45.898,-7.751
0.574,-0.793,-0.461,13.000,39.978,-7.019
0.566,-0.844,-0.434,8.423,31.372,-3.906
0.557,-0.859,-0.408,2.625,25.085,1.038
0.552,-0.830,-0.386,-2.869,21.729,7.812
0.552,-0.790,-0.355,-5.432,19.226,13.245
0.548,-0.734,-0.323,-4.456,18.372,16.663
0.541,-0.681,-0.302,-1.404,18.616,17.578
0.534,-0.642,-0.319,0.183,20.386,15.991
0.531,-0.645,-0.349,-0.488,21.729,13.245
0.514,-0.702,-0.381,-1.892,21.729,9.399
0.511,-0.721,-0.388,-1.770,19.958,7.996
0.512,-0.713,-0.397,0.793,17.944,7.568
0.518,-0.711,-0.390,2.808,15.930,6.714
0.522,-0.726,-0.380,2.563,14.404,5.371
0.522,-0.724,-0.403,1.038,14.343,4.883
0.525,-0.733,-0.419,-1.099,13.977,4.639
0.525,-0.758,-0.397,-1.892,11.963,4.150
0.519,-0.770,-0.418,-2.380,11.841,3.906
0.527,-0.741,-0.430,-2.319,11.536,4.822
0.537,-0.721,-0.390,-0.977,8.667,4.395
0.536,-0.745,-0.360,0.610,7.263,2.319
0.542,-0.794,-0.363,1.404,7.812,0.183
0.553,-0.805,-0.386,2.014,7.935,0.793
0.559,-0.790,-0.377,2.136,6.226,3.235
0.560,-0.863,-0.316,0.610,3.113,3.418
0.569,-0.867,-0.276,-1.526,2.563,6.348
0.580,-0.810,-0.290,-2.747,5.127,10.986
0.585,-0.787,-0.329,-3.052,7.385,12.268
0.599,-0.781,-0.332,-2.075,7.080,11.292
0.603,-0.760,-0.325,-0.305,6.592,10.620
0.607,-0.745,-0.343,0.305,7.812,9.460
0.607,-0.733,-0.371,0.427,9.277,7.690
0.603,-0.728,-0.401,0.916,10.010,6.104
0.597,-0.739,-0.445,1.526,10.437,4.578
0.593,-0.762,-0.473,1.953,9.399,3.784
0.588,-0.783,-0.480,2.380,6.531,4.089
0.590,-0.797,-0.485,1.526,3.906,6.042
0.602,-0.779,-0.451,0.244,0.671,9.155
0.611,-0.744,-0.406,-0.488,-1.648,11.902
0.628,-0.703,-0.379,-1.526,-1.648,13.123

0.174,-0.682,-1.725,-11.414,30.823,31.738
0.137,-0.544,-1.925,-13.672,28.870,41.199
0.118,-0.352,-2.141,-14.465,29.175,46.326
0.077,-0.169,-2.368,-7.263,31.067,43.640
0.023,-0.041,-2.638,7.996,29.724,31.799
-0.105,-0.144,-2.896,14.282,24.292,10.742
-0.205,-0.471,-3.112,31.067,15.381,-7.019
-0.317,-0.105,-3.505,48.218,7.202,4.456
-0.489,0.042,-3.719,60.120,-14.709,1.404
-0.569,0.240,-3.781,58.716,-54.993,-9.827
-0.642,0.406,-3.599,48.523,-103.149,-23.315
-0.733,0.484,-3.264,37.476,-158.325,-46.875
-0.782,0.565,-2.826,24.414,-212.585,-73.059
-0.898,0.445,-2.292,14.954,-264.221,-104.980
-1.017,0.102,-1.602,7.812,-311.218,-137.939
-1.122,-0.311,-0.922,1.465,-344.482,-160.522
-1.271,-0.769,-0.364,-7.141,-358.154,-169.983
-1.417,-1.258,0.264,-4.944,-367.615,-167.847
-1.588,-1.762,0.964,2.014,-374.207,-156.250
-1.688,-1.856,1.419,11.719,-358.704,-129.395
-1.723,-1.425,1.370,29.053,-321.350,-94.604
-1.790,-1.369,1.547,64.819,-310.913,-86.731
-1.698,-1.801,2.468,116.516,-360.168,-112.183
-1.190,-2.483,3.944,157.654,-426.514,-135.620
-0.399,-3.168,4.000,158.325,-455.322,-137.939
0.628,-3.564,4.000,132.080,-419.006,-111.328
1.468,-3.552,4.000,90.271,-322.876,-58.105
1.798,-3.286,4.000,13.428,-178.162,10.376
1.498,-2.816,4.000,-91.003,-16.235,86.426
0.783,-1.853,4.000,-164.246,98.999,163.391
0.127,-0.480,3.416,-186.951,156.677,216.919
-0.261,0.389,2.617,-186.157,188.782,204.468
-0.543,0.102,2.324,-172.852,190.369,122.681
-0.681,-0.766,2.467,-129.700,172.668,34.912
-0.902,-1.341,2.438,-79.712,176.514,-1.343
-1.093,-1.511,1.948,-70.435,206.848,2.869
-1.205,-1.594,1.390,-98.145,229.736,16.357
-1.248,-1.659,1.092,-142.761,226.135,29.602
-1.176,-1.411,0.878,-178.711,217.468,49.133
-1.012,-0.964,0.538,-194.336,219.971,64.880
-0.838,-0.594,0.187,-186.951,221.130,59.387
-0.648,-0.445,-0.092,-170.715,214.844,34.363
-0.519,-0.514,-0.262,-151.001,202.271,-0.122
-0.395,-0.637,-0.479,-130.615,194.336,-31.677
-0.234,-0.777,-0.903,-116.150,195.496,-55.115
-0.174,-1.056,-1.336,-114.197,193.604,-71.350
-0.059,-1.388,-1.601,-120.239,174.927,-77.026
0.050,-1.593,-1.635,-123.352,144.409,-69.214
0.208,-1.539,-1.567,-117.126,117.920,-49.988
0.350,-1.428,-1.321,-101.990,96.497,-37.231
0.481,-1.418,-1.168,-81.970,92.102,-36.316
0.552,-1.454,-1.284,-54.077,106.812,-39.978
0.553,-1.498,-1.584,-26.672,124.084,-39.978
0.543,-1.453,-1.862,-20.874,130.554,-31.616
0.518,-1.465,-2.130,-22.888,121.460,-21.240
0.530,-1.363,-2.281,-33.936,101.746,-6.653
0.558,-1.183,-2.310,-43.762,77.087,5.005
0.614,-1.071,-2.125,-44.189,46.753,7.080
0.626,-1.128,-1.861,-26.855,22.400,0.244
0.587,-1.224,-1.734,0.305,13.611,-4.944
0.522,-1.310,-1.689,25.269,9.583,-4.028
0.476,-1.372,-1.572,39.490,-1.343,2.563
0.493,-1.278,-1.380,43.396,-17.456,16.541
0.542,-1.018,-1.222,42.603,-31.494,33.447
0.609,-0.800,-1.041,36.560,-45.410,41.504
0.679,-0.636,-0.756,29.114,-62.073,42.664
0.756,-0.535,-0.387,23.682,-76.050,39.001
0.821,-0.499,-0.002,22.522,-82.825,31.128
0.861,-0.471,0.286,25.085,-78.613,23.132
0.879,-0.457,0.428,28.137,-64.087,15.686
0.891,-0.498,0.521,30.334,-48.706,8.362
0.888,-0.615,0.615,29.480,-36.194,2.625
0.903,-0.656,0.602,24.902,-20.081,3.113
0.895,-0.651,0.460,19.104,-1.709,7.507
0.886,-0.609,0.361,15.381,9.338,10.925
0.884,-0.547,0.328,13.306,14.832,12.634
0.883,-0.527,0.295,12.268,22.034,9.583
0.849,-0.538,0.193,14.893,31.494,3.845
0.823,-0.614,0.058,19.348,40.283,-3.418
0.779,-0.767,-0.072,23.926,44.983,-9.705
0.732,-0.895,-0.197,25.208,47.302,-10.681
0.692,-0.927,-0.300,23.132,46.692,-5.188
0.656,-0.895,-0.388,18.372,44.189,1.892
0.637,-0.818,-0.423,13.916,39.063,8.362
0.629,-0.741,-0.427,11.963,33.081,12.451
0.618,-0.677,-0.409,11.597,28.015,14.343
0.622,-0.609,-0.398,12.268,23.987,14.282
0.620,-0.568,-0.383,13.062,20.325,11.658
0.615,-0.551,-0.343,13.916,15.991,7.629
0.625,-0.564,-0.289,16.174,11.902,2.991
0.625,-0.570,-0.220,19.592,8.484,-0.427
0.628,-0.594,-0.200,18.738,7.751,-2.441
0.627,-0.583,-0.240,15.320,9.155,-3.113
0.629,-0.601,-0.272,11.719,8.179,-4.089
0.633,-0.691,-0.233,7.080,3.235,-6.226
0.643,-0.722,-0.222,3.113,0.122,-4.822
0.640,-0.719,-0.203,-0.793,-1.770,-2.258
0.657,-0.738,-0.121,-4.395,-5.493,-1.038
0.673,-0.731,-0.066,-5.005,-6.165,0.366
0.678,-0.698,-0.048,-2.197,-3.723,1.343
0.685,-0.696,-0.048,0.122,-1.343,0.000
0.684,-0.720,-0.076,1.587,1.526,-1.587
0.682,-0.756,-0.099,2.991,3.540,-2.319
0.687,-0.760,-0.103,5.737,3.662,-2.197
0.679,-0.796,-0.102,6.104,3.601,-2.258
0.676,-0.839,-0.117,3.479,4.456,-1.709
0.673,-0.840,-0.125,1.343,4.944,1.526
0.675,-0.798,-0.126,0.061,4.700,5.432
0.678,-0.745,-0.143,-0.977,5.188,7.996
0.677,-0.708,-0.178,-1.282,5.920,8.545
0.675,-0.727,-0.175,-0.122,5.188,6.836
0.668,-0.749,-0.144,1.892,3.967,5.676
0.666,-0.758,-0.139,1.709,4.944,6.409
0.659,-0.736,-0.180,0.244,7.141,7.751
0.656,-0.707,-0.219,-0.793,7.751,8.423
0.656,-0.702,-0.219,-1.526,6.042,7.751
0.657,-0.689,-0.214,-2.319,4.944,7.202
0.660,-0.658,-0.218,-1.648,4.883,6.714
0.658,-0.649,-0.213,0.183,4.761,4.822


0.895,-1.055,-0.778,-10.071,-9.644,18.066
0.906,-1.125,-0.926,-7.874,-9.705,19.531
0.910,-1.245,-1.124,-6.714,-9.399,21.057
0.893,-1.281,-1.220,-1.038,-17.151,27.588
0.903,-1.181,-1.240,8.179,-30.212,38.452
0.916,-1.105,-1.302,11.292,-40.405,46.753
0.901,-1.091,-1.440,5.066,-47.546,52.185
0.869,-1.057,-1.599,-3.601,-56.702,59.753
0.825,-0.987,-1.683,-9.888,-73.181,67.749
0.748,-0.913,-1.659,-11.902,-95.886,72.510
0.731,-0.838,-1.516,-14.099,-119.995,75.989
0.708,-0.751,-1.356,-15.259,-138.550,80.750
0.687,-0.630,-1.283,-13.977,-147.339,83.679
0.633,-0.538,-1.254,-11.902,-153.625,84.656
0.585,-0.503,-1.193,-12.634,-161.377,82.642
0.565,-0.490,-1.027,-12.024,-171.326,82.214
0.564,-0.481,-0.872,-7.751,-176.086,82.031
0.521,-0.466,-0.905,-1.831,-169.983,81.116
0.477,-0.439,-1.014,5.005,-162.781,78.674
0.426,-0.448,-1.022,15.259,-164.307,74.158
0.361,-0.520,-0.862,26.917,-170.776,67.688
0.310,-0.606,-0.634,39.429,-172.424,61.890
0.261,-0.629,-0.432,52.368,-164.185,58.533
0.116,-0.662,-0.376,59.814,-144.714,56.824
-0.137,-0.725,-0.370,67.688,-123.352,54.871
-0.370,-0.643,-0.330,87.769,-115.295,54.321
-0.587,-0.655,-0.223,109.985,-122.437,48.218
-0.871,-0.906,-0.133,129.272,-141.663,39.734
-1.326,-1.441,0.250,147.827,-186.523,37.720
-1.804,-2.118,1.347,167.725,-273.499,55.420
-2.087,-2.537,3.044,176.514,-383.728,102.051
-2.041,-2.281,4.000,141.663,-469.482,185.608
-1.781,-1.281,4.000,94.116,-501.831,281.372
-1.332,0.328,4.000,26.550,-439.758,349.609
-0.790,2.326,4.000,-93.689,-260.376,369.812
-0.349,3.957,4.000,-213.257,-61.829,341.064
-0.231,4.000,4.000,-307.373,71.594,230.713
-0.712,3.809,4.000,-327.087,144.470,-6.653
-1.322,1.479,3.964,-268.005,185.913,-242.432
-1.654,-0.599,3.673,-170.837,236.450,-383.484
-1.850,-2.434,2.920,-108.398,314.880,-451.050
-1.796,-3.774,1.599,-119.568,394.897,-424.805
-1.510,-3.998,0.178,-180.847,425.598,-294.983
-1.069,-2.697,-0.878,-172.974,380.249,-111.511
-0.615,-0.985,-0.934,-156.738,275.085,13.245
-0.262,-0.136,-0.516,-164.185,179.626,26.489
-0.051,-0.245,-0.136,-183.350,133.850,-25.330
-0.041,-0.785,0.107,-180.420,123.169,-77.332
-0.046,-1.203,0.102,-164.612,131.287,-99.548
-0.000,-1.357,-0.139,-149.841,145.813,-97.412
0.065,-1.356,-0.416,-138.916,152.344,-85.449
0.171,-1.173,-0.548,-130.005,144.226,-68.970
0.272,-0.887,-0.613,-126.221,131.042,-54.810
0.409,-0.556,-0.645,-121.033,121.704,-50.049
0.550,-0.393,-0.652,-105.469,114.990,-60.730
0.597,-0.529,-0.733,-90.820,110.229,-83.740
0.622,-0.917,-0.867,-86.792,105.347,-106.506
0.723,-1.297,-0.873,-81.787,89.478,-115.906
0.855,-1.454,-0.761,-69.702,67.444,-108.887
0.901,-1.422,-0.820,-59.753,57.068,-93.567
0.948,-1.498,-1.040,-60.242,57.129,-85.754
1.053,-1.565,-1.068,-56.824,45.898,-80.505
1.148,-1.498,-0.915,-38.574,29.114,-68.848
1.182,-1.441,-0.732,-16.357,23.804,-60.608
1.207,-1.413,-0.580,10.559,32.043,-59.631
1.186,-1.430,-0.460,45.959,49.011,-62.378
1.162,-1.432,-0.400,89.478,71.045,-65.369
1.091,-1.429,-0.712,131.348,98.694,-64.575
0.927,-1.592,-1.376,139.709,124.023,-61.584
0.878,-1.731,-1.871,115.295,118.591,-47.974
0.897,-1.609,-1.930,92.529,72.632,-17.883
0.908,-1.248,-1.408,82.886,6.409,14.893
0.935,-0.891,-0.807,72.205,-38.940,36.011
0.959,-0.638,-0.453,55.481,-49.622,42.725
0.984,-0.386,-0.149,47.729,-49.072,43.579
1.008,-0.179,0.190,53.345,-46.570,38.269
1.040,-0.076,0.473,62.073,-35.400,26.489
1.042,-0.086,0.614,66.711,-13.977,12.146
1.029,-0.157,0.640,63.049,12.512,0.183
1.022,-0.144,0.562,60.730,38.574,-5.737
0.997,-0.173,0.352,59.753,62.561,-12.756
0.939,-0.281,0.060,57.068,79.590,-20.935
0.897,-0.430,-0.181,53.833,84.412,-25.635
0.891,-0.529,-0.243,48.462,77.026,-23.682
0.879,-0.494,-0.271,38.574,68.054,-14.771
0.860,-0.437,-0.378,20.813,65.125,-6.165
0.842,-0.431,-0.458,4.578,60.730,-2.625
0.830,-0.441,-0.381,-2.747,50.781,-1.953
0.823,-0.436,-0.249,-3.357,43.518,-1.953
0.795,-0.495,-0.207,-1.404,44.983,-4.822
0.776,-0.582,-0.323,2.563,51.514,-8.911
0.759,-0.673,-0.475,8.301,53.650,-10.315
0.749,-0.763,-0.497,9.888,45.654,-7.690
0.751,-0.770,-0.458,3.784,35.645,0.793
0.767,-0.657,-0.438,-3.967,29.663,12.146
0.780,-0.511,-0.434,-6.775,24.475,18.616
0.792,-0.419,-0.383,-6.348,18.555,18.372
0.799,-0.383,-0.316,-4.395,13.550,14.038
0.791,-0.416,-0.294,-3.113,11.963,7.874
0.778,-0.480,-0.293,-1.953,10.864,2.075
0.772,-0.520,-0.268,-1.038,8.667,-0.854
0.767,-0.530,-0.231,0.000,6.836,-1.648
0.764,-0.516,-0.194,2.136,6.042,-1.831
0.758,-0.537,-0.178,3.540,6.531,-2.625
0.766,-0.563,-0.187,2.991,8.240,-3.174
0.781,-0.537,-0.229,3.052,9.644,-2.441
0.788,-0.535,-0.262,2.441,9.094,-2.869
0.791,-0.585,-0.259,0.488,6.226,-4.456
0.796,-0.630,-0.248,-2.197,3.174,-5.188
0.796,-0.643,-0.223,-3.540,1.099,-4.028
0.802,-0.631,-0.190,-3.174,0.122,-2.502
0.810,-0.602,-0.173,-1.526,0.854,-1.404
0.816,-0.556,-0.160,0.854,2.747,-1.160
0.820,-0.520,-0.144,4.639,4.700,-2.258
0.822,-0.535,-0.125,8.545,7.080,-5.188
0.815,-0.555,-0.120,12.451,10.498,-8.118
0.801,-0.610,-0.146,15.015,14.648,-9.888
0.788,-0.680,-0.204,13.977,18.738,-9.827
0.780,-0.650,-0.270,12.024,20.325,-5.310

0.817,-0.855,-0.982,7.202,-9.827,25.879
0.815,-0.816,-0.980,11.230,-17.639,31.738
0.792,-0.790,-1.000,15.137,-21.240,35.461
0.778,-0.743,-1.027,20.874,-23.621,38.025
0.759,-0.706,-1.053,27.832,-26.184,38.696
0.765,-0.680,-1.091,32.898,-28.076,38.208
0.775,-0.628,-1.138,39.917,-29.846,37.231
0.780,-0.620,-1.175,47.668,-32.593,33.691
0.792,-0.645,-1.232,52.856,-35.522,29.602
0.786,-0.650,-1.314,56.030,-38.147,28.076
0.780,-0.635,-1.369,57.861,-44.006,28.992
0.780,-0.596,-1.402,57.922,-53.223,30.945
0.770,-0.527,-1.477,55.664,-61.462,33.936
0.746,-0.456,-1.572,53.284,-71.106,35.645
0.718,-0.366,-1.647,51.819,-84.717,35.461
0.675,-0.302,-1.710,48.340,-99.670,31.860
0.614,-0.283,-1.782,43.091,-112.671,25.269
0.556,-0.298,-1.814,37.903,-125.671,17.456
0.494,-0.330,-1.804,34.546,-136.292,9.521
0.418,-0.330,-1.818,39.001,-142.761,1.770
0.316,-0.370,-1.825,54.993,-147.400,-8.850
0.155,-0.471,-1.919,75.317,-152.100,-23.315
-0.002,-0.704,-1.946,96.619,-160.706,-39.429
-0.188,-1.086,-1.721,115.906,-180.664,-53.101
-0.313,-1.464,-1.233,117.737,-205.566,-57.434
-0.460,-1.491,-1.121,124.207,-203.735,-42.114
-0.661,-1.311,-1.347,130.127,-192.566,-20.996
-0.976,-1.186,-1.405,147.949,-217.346,-13.184
-1.334,-1.100,-1.126,176.392,-278.748,-16.846
-1.775,-1.040,-0.575,210.022,-355.286,-25.330
-2.320,-1.149,0.229,235.901,-431.946,-36.987
-2.872,-1.741,1.559,250.366,-509.888,-52.917
-3.265,-3.268,3.894,247.559,-606.628,-69.580
-2.984,-4.000,4.000,190.857,-662.354,-56.824
-1.692,-4.000,4.000,126.160,-554.749,53.223
-0.189,-2.564,4.000,99.976,-308.350,230.896
0.599,-0.398,4.000,69.885,-127.380,338.379
0.447,0.559,4.000,-20.386,-92.224,350.647
-0.162,1.081,4.000,-187.744,-56.335,349.060
-0.448,2.696,3.906,-335.571,45.044,379.456
-0.428,4.000,2.476,-393.433,145.386,387.634
-0.669,4.000,1.321,-382.141,171.143,273.071
-1.289,3.663,2.149,-326.111,64.941,-2.258
-1.911,0.982,3.852,-260.071,-52.673,-261.780
-2.253,-1.074,4.000,-209.229,-60.120,-382.690
-2.286,-2.490,4.000,-162.903,44.006,-420.959
-2.111,-2.731,3.956,-141.052,229.614,-364.502
-1.870,-2.102,1.965,-124.939,389.832,-275.574
-1.638,-1.764,0.371,-125.244,446.350,-227.600
-1.376,-1.991,-0.577,-150.513,418.213,-215.149
-0.960,-2.233,-1.204,-170.837,354.919,-198.181
-0.557,-2.260,-1.547,-187.927,279.358,-162.109
-0.258,-1.940,-1.685,-207.825,204.407,-112.915
0.017,-1.429,-1.720,-237.549,141.907,-70.129
0.336,-0.983,-1.518,-261.963,83.008,-49.988
0.619,-0.753,-1.041,-262.878,27.039,-52.185
0.782,-0.764,-0.438,-246.765,-5.432,-70.923
1.010,-0.775,-0.121,-213.989,-5.798,-89.050
1.114,-1.040,0.081,-180.786,13.733,-109.070
1.157,-1.480,0.264,-153.381,39.490,-131.470
1.168,-1.688,0.172,-128.906,79.834,-133.972
1.180,-1.630,-0.000,-91.370,119.690,-124.878
1.177,-1.554,-0.459,-32.166,155.151,-121.155
1.097,-1.850,-1.189,0.000,184.753,-129.089
1.050,-2.155,-1.719,3.479,184.021,-125.610
1.089,-2.307,-1.913,0.671,151.245,-106.018
1.107,-2.361,-1.777,7.019,107.788,-82.153
1.102,-2.276,-1.406,28.381,71.289,-58.838
1.050,-2.102,-1.129,53.101,61.890,-38.574
0.947,-1.832,-1.027,82.947,73.059,-20.813
0.881,-1.433,-0.944,113.892,84.839,-5.798
0.843,-1.080,-0.770,145.325,90.820,-1.831
0.830,-0.833,-0.741,167.786,100.952,-5.676
0.812,-0.743,-0.979,172.180,113.892,-10.803
0.832,-0.587,-1.143,153.870,110.352,-7.568
0.851,-0.528,-1.222,117.126,87.708,-3.906
0.878,-0.497,-1.033,68.665,51.636,0.610
0.954,-0.381,-0.562,30.945,11.108,10.071
1.019,-0.309,-0.102,10.620,-13.245,13.611
1.052,-0.264,0.338,2.075,-20.508,11.841
1.081,-0.230,0.636,4.150,-11.780,8.179
1.060,-0.254,0.750,11.963,11.658,1.587
1.031,-0.248,0.654,22.400,41.870,-4.883
0.994,-0.184,0.509,28.564,69.458,-7.812
0.933,-0.107,0.314,30.701,90.393,-12.085
0.865,-0.047,0.048,29.114,108.704,-18.921
0.798,-0.071,-0.087,30.090,116.333,-30.823
0.736,-0.118,-0.188,34.424,118.958,-43.030
0.668,-0.233,-0.404,35.278,124.878,-53.528
0.597,-0.437,-0.696,28.503,128.113,-61.279
0.564,-0.658,-0.888,18.005,119.385,-62.195
0.571,-0.782,-0.954,9.338,100.952,-54.199
0.565,-0.857,-0.993,1.099,82.642,-42.358
0.568,-0.907,-0.998,-6.592,66.223,-30.640
0.585,-0.878,-0.934,-7.996,49.988,-18.677
0.602,-0.784,-0.827,-4.089,37.292,-8.484
0.604,-0.670,-0.727,1.404,29.785,-2.747
0.615,-0.603,-0.687,4.578,27.771,-2.258
0.622,-0.577,-0.688,8.301,26.855,-4.639
0.625,-0.588,-0.672,10.925,23.621,-7.812
0.633,-0.600,-0.655,10.437,18.921,-8.972
0.642,-0.595,-0.647,7.385,14.954,-8.240
0.650,-0.583,-0.616,4.333,10.315,-7.324
0.665,-0.608,-0.580,3.601,5.249,-8.118
0.668,-0.655,-0.551,3.418,1.343,-8.606
0.669,-0.689,-0.527,2.747,-2.258,-6.653
0.683,-0.701,-0.510,1.282,-5.737,-3.174
0.695,-0.686,-0.463,0.549,-10.193,0.977
0.712,-0.655,-0.369,0.488,-15.137,4.700
0.734,-0.621,-0.271,0.671,-17.151,6.531
0.749,-0.567,-0.220,1.648,-14.832,7.019
0.760,-0.537,-0.209,2.441,-10.315,5.127
0.756,-0.534,-0.209,2.625,-6.104,2.197
0.743,-0.535,-0.205,2.625,-2.747,-0.427
0.735,-0.531,-0.204,2.808,0.732,-2.075
0.720,-0.533,-0.202,4.272,4.639,-4.089
0.712,-0.529,-0.216,7.019,8.606,-6.592
0.714,-0.533,-0.263,10.681,13.489,-9.705
0.716,-0.567,-0.303,15.381,16.602,-13.611

0.184,-0.776,-2.042,57.434,81.726,-55.603
0.109,-0.901,-2.346,55.847,71.045,-57.678
0.048,-0.936,-2.543,53.040,50.049,-53.223
0.004,-0.955,-2.658,52.185,21.790,-47.363
-0.037,-1.001,-2.690,51.819,-9.827,-42.236
-0.106,-1.095,-2.714,48.828,-41.748,-35.889
-0.151,-1.156,-2.727,38.879,-71.472,-25.024
-0.211,-1.128,-2.711,31.433,-102.051,-8.667
-0.242,-1.011,-2.624,28.503,-134.583,7.568
-0.263,-0.816,-2.485,28.687,-165.405,21.118
-0.327,-0.645,-2.381,28.687,-190.613,27.710
-0.383,-0.522,-2.257,26.855,-213.867,27.222
-0.394,-0.413,-2.117,24.536,-235.535,22.339
-0.412,-0.327,-1.946,26.978,-254.883,14.404
-0.452,-0.289,-1.734,33.203,-273.132,2.380
-0.507,-0.292,-1.569,37.231,-288.757,-12.085
-0.564,-0.348,-1.480,33.630,-300.598,-26.978
-0.658,-0.405,-1.420,33.325,-314.392,-39.246
-0.816,-0.482,-1.327,36.377,-335.510,-49.744
-1.065,-0.557,-1.144,40.100,-365.540,-59.448
-1.359,-0.678,-0.751,45.959,-405.640,-68.665
-1.682,-0.864,-0.198,58.105,-449.402,-78.430
-2.029,-1.074,0.405,71.655,-486.084,-86.060
-2.324,-1.323,1.043,84.167,-512.024,-90.759
-2.549,-1.529,1.590,91.187,-523.071,-85.022
-2.740,-1.677,2.055,99.670,-521.667,-69.641
-2.839,-1.779,2.421,111.877,-510.132,-48.279
-2.807,-1.924,2.793,132.019,-499.451,-29.236
-2.648,-2.035,3.088,142.883,-485.718,-13.367
-2.308,-1.976,3.330,144.409,-463.074,5.188
-1.703,-1.803,3.736,159.668,-441.650,22.400
-1.053,-1.772,4.000,189.819,-421.448,31.555
-0.455,-1.850,4.000,190.857,-374.207,42.480
0.067,-1.620,4.000,139.709,-284.668,79.590
0.447,-0.868,3.723,64.148,-197.510,143.677
0.726,0.226,3.352,-12.573,-142.944,207.642
0.927,1.388,3.250,-90.332,-104.370,241.394
0.982,2.282,3.243,-152.832,-57.556,225.098
0.832,2.701,3.131,-181.824,5.066,154.419
0.481,2.500,3.005,-174.866,69.397,39.001
0.073,1.300,3.191,-158.630,116.516,-94.177
-0.380,-0.105,3.400,-149.475,159.851,-189.880
-0.901,-1.410,3.412,-154.480,210.937,-229.370
-1.372,-2.517,3.209,-169.434,257.874,-227.844
-1.669,-3.304,2.859,-185.425,286.865,-200.073
-1.831,-3.622,2.537,-196.777,293.701,-146.729
-1.777,-2.809,2.294,-188.110,284.851,-62.134
-1.642,-1.338,2.237,-165.833,271.851,14.587
-1.493,-0.287,2.160,-177.551,266.663,27.100
-1.274,0.104,1.914,-201.599,276.794,-19.897
-1.070,-0.024,1.642,-198.303,286.987,-91.431
-0.963,-0.614,1.308,-171.875,295.532,-157.471
-0.884,-1.333,1.009,-155.212,301.636,-195.007
-0.753,-1.673,0.703,-148.376,300.171,-193.542
-0.584,-1.752,0.210,-145.874,299.011,-171.570
-0.372,-1.755,-0.327,-150.635,289.185,-147.888
-0.187,-1.915,-0.541,-150.696,255.737,-127.930
0.027,-1.847,-0.581,-148.865,213.928,-97.168
0.265,-1.498,-0.617,-155.212,182.068,-59.814
0.492,-1.223,-0.608,-163.147,156.250,-41.870
0.687,-1.083,-0.506,-166.016,135.681,-43.030
0.813,-1.120,-0.388,-161.438,125.549,-57.434
0.842,-1.352,-0.370,-146.362,127.930,-78.735
0.826,-1.604,-0.478,-118.408,139.771,-92.163
0.766,-1.929,-0.634,-89.294,154.785,-98.206
0.679,-2.237,-0.759,-64.514,164.368,-93.994
0.592,-2.402,-0.925,-42.969,171.570,-77.454
0.564,-2.294,-1.159,-28.442,179.138,-48.828
0.532,-2.037,-1.399,-20.020,180.969,-21.118
0.506,-1.824,-1.504,-8.606,170.044,-6.653
0.468,-1.764,-1.500,11.597,154.175,-5.554
0.386,-1.763,-1.487,39.001,143.799,-7.690
0.327,-1.712,-1.539,64.270,142.822,-4.517
0.267,-1.573,-1.595,88.196,142.639,2.563
0.211,-1.453,-1.619,111.755,138.062,10.010
0.176,-1.285,-1.592,130.981,128.784,18.127
0.190,-1.090,-1.560,141.724,116.638,27.771
0.185,-0.899,-1.606,134.644,105.652,37.720
0.226,-0.686,-1.659,112.427,89.050,47.974
0.301,-0.483,-1.630,82.947,62.561,54.871
0.395,-0.278,-1.444,56.824,27.954,56.152
0.487,-0.130,-1.173,40.894,-6.042,50.354
0.567,-0.084,-0.854,36.499,-35.339,38.513
0.642,-0.204,-0.451,39.307,-59.448,23.010
0.723,-0.430,0.058,44.495,-78.491,12.329
0.802,-0.681,0.572,44.983,-84.167,10.681
0.875,-0.772,0.888,36.194,-68.665,20.752
0.953,-0.611,0.877,20.142,-35.339,39.001
1.006,-0.323,0.688,7.751,-2.380,52.368
1.045,-0.045,0.564,6.958,15.930,52.063
1.073,0.142,0.492,12.878,26.733,39.124
1.070,0.164,0.388,18.921,39.795,17.639
1.032,0.018,0.250,23.865,53.467,-6.592
0.971,-0.228,0.099,27.222,64.270,-26.917
0.907,-0.449,-0.036,29.297,70.435,-37.842
0.854,-0.626,-0.176,28.503,72.937,-39.978
0.801,-0.764,-0.306,24.658,72.815,-35.522
0.761,-0.847,-0.413,18.860,69.092,-26.062
0.739,-0.858,-0.518,12.512,63.477,-13.672
0.717,-0.825,-0.600,6.104,55.176,-1.465
0.697,-0.789,-0.666,-0.244,45.105,8.301
0.696,-0.724,-0.681,-3.357,33.447,16.113
0.702,-0.622,-0.641,-2.380,20.325,21.790
0.707,-0.523,-0.607,-2.075,9.705,24.353
0.708,-0.466,-0.560,-3.418,1.160,23.376
0.710,-0.441,-0.474,-4.944,-6.836,20.508
0.712,-0.404,-0.377,-4.883,-12.329,17.944
0.711,-0.391,-0.297,-4.944,-13.977,14.465
0.726,-0.415,-0.195,-3.174,-14.160,9.766
0.733,-0.452,-0.134,0.549,-11.597,5.371
0.745,-0.454,-0.141,4.150,-5.676,2.502
0.752,-0.463,-0.186,6.775,-0.610,-0.122
0.762,-0.521,-0.198,7.812,1.343,-3.174
0.767,-0.575,-0.226,8.545,2.014,-4.395
0.778,-0.602,-0.272,8.789,2.136,-3.418
0.782,-0.622,-0.307,6.714,-0.244,-2.014
0.776,-0.639,-0.314,1.282,-4.150,1.038
0.782,-0.635,-0.296,-4.639,-9.033,5.249
0.792,-0.552,-0.265,-7.507,-13.611,9.583

0.473,-0.783,-1.601,65.002,26.184,-29.663
0.426,-0.825,-1.746,66.589,13.184,-30.273
0.387,-0.878,-1.767,64.941,-7.874,-28.503
0.381,-0.893,-1.798,59.509,-28.076,-23.132
0.385,-0.850,-1.817,53.223,-46.997,-14.954
0.387,-0.805,-1.739,49.500,-68.787,-7.202
0.390,-0.758,-1.630,47.180,-88.440,-2.197
0.382,-0.713,-1.581,43.274,-101.074,1.099
0.367,-0.657,-1.532,37.537,-110.046,3.662
0.323,-0.561,-1.485,31.372,-116.272,5.493
0.265,-0.452,-1.480,22.034,-116.638,4.944
0.216,-0.315,-1.568,9.583,-111.694,1.404
0.143,-0.157,-1.716,2.563,-105.713,-5.737
0.014,-0.049,-1.902,3.235,-105.469,-20.569
-0.146,0.013,-2.209,10.193,-111.511,-42.480
-0.369,0.007,-2.500,23.132,-134.949,-69.275
-0.640,-0.134,-2.591,34.790,-185.364,-99.304
-0.951,-0.419,-2.464,38.208,-254.272,-126.404
-1.278,-0.852,-1.970,37.415,-337.891,-143.494
-1.617,-1.323,-1.024,44.617,-430.481,-148.071
-1.957,-1.735,0.163,61.707,-507.202,-134.949
-2.191,-1.925,1.390,70.618,-548.401,-103.516
-2.364,-1.944,2.463,78.857,-550.598,-61.157
-2.420,-1.958,3.316,83.374,-523.254,-25.269
-2.199,-1.709,3.983,96.313,-474.609,7.446
-1.600,-1.225,4.000,136.902,-421.448,25.330
-0.711,-0.710,4.000,180.908,-361.206,13.733
0.263,-0.488,4.000,193.909,-294.189,-22.278
0.908,-0.990,4.000,163.330,-236.938,-69.397
1.107,-2.188,4.000,92.651,-184.814,-93.933
0.980,-3.127,4.000,-4.700,-124.207,-50.293
0.760,-2.900,3.230,-109.619,-48.035,69.214
0.367,-1.581,2.418,-192.139,15.015,215.637
0.038,0.025,1.922,-241.394,44.800,315.735
-0.049,1.287,1.595,-267.517,58.838,337.219
0.010,1.972,1.468,-273.926,56.702,285.828
0.013,1.876,1.646,-261.719,40.222,187.866
-0.070,1.162,2.087,-250.061,24.780,74.463
-0.207,0.353,2.496,-219.971,29.297,-11.475
-0.399,-0.461,2.780,-184.021,50.903,-63.904
-0.566,-1.125,2.802,-154.907,86.487,-86.182
-0.674,-1.383,2.534,-138.062,125.916,-77.209
-0.731,-1.230,2.146,-133.484,153.442,-47.852
-0.715,-0.806,2.022,-136.108,156.982,-21.118
-0.622,-0.422,1.989,-142.212,155.090,-15.991
-0.497,-0.338,1.772,-152.649,167.969,-35.156
-0.402,-0.514,1.465,-153.625,183.228,-64.819
-0.280,-0.665,1.348,-142.578,184.448,-86.853
-0.212,-0.812,1.320,-129.150,185.242,-101.196
-0.128,-1.089,1.127,-113.525,200.134,-115.723
-0.041,-1.256,0.794,-96.680,219.604,-118.347
0.054,-1.285,0.371,-80.261,235.107,-108.826
0.129,-1.162,-0.084,-69.763,241.516,-93.262
0.327,-0.989,-0.365,-65.674,230.652,-80.139
0.482,-0.951,-0.335,-64.148,204.163,-76.416
0.580,-1.151,-0.338,-63.599,186.523,-83.740
0.698,-1.336,-0.553,-62.622,187.073,-85.571
0.789,-1.459,-0.799,-56.519,186.157,-78.735
0.845,-1.506,-0.963,-50.720,176.147,-67.139
0.918,-1.427,-1.052,-44.067,161.255,-52.063
0.950,-1.304,-1.099,-34.485,145.752,-40.344
0.940,-1.288,-1.178,-24.902,134.827,-35.583
0.931,-1.337,-1.300,-20.264,127.380,-33.875
0.934,-1.349,-1.417,-15.625,118.896,-29.846
0.906,-1.317,-1.489,-8.789,107.483,-24.353
0.866,-1.323,-1.592,-2.075,98.267,-23.254
0.802,-1.346,-1.672,5.371,87.830,-23.804
0.729,-1.433,-1.608,14.587,72.449,-24.475
0.665,-1.549,-1.401,25.146,56.580,-22.461
0.601,-1.583,-1.237,38.818,53.833,-13.489
0.534,-1.430,-1.251,57.312,64.148,1.770
0.474,-1.197,-1.351,77.148,74.707,15.686
0.448,-0.970,-1.418,92.651,76.172,24.353
0.466,-0.782,-1.464,101.624,69.458,28.625
0.507,-0.609,-1.479,99.609,56.580,31.250
0.565,-0.439,-1.463,88.196,38.086,34.363
0.627,-0.269,-1.376,70.435,14.526,36.804
0.671,-0.133,-1.160,50.476,-14.465,36.682
0.755,-0.059,-0.830,32.898,-44.189,33.752
0.812,-0.096,-0.350,19.165,-69.885,28.931
0.863,-0.153,0.121,8.911,-83.557,25.513
0.917,-0.167,0.550,-0.977,-82.642,26.733
0.963,-0.147,0.851,-7.751,-66.589,28.748
0.997,-0.056,0.945,-11.475,-36.926,29.358
1.024,0.086,0.877,-10.803,-3.845,25.757
1.050,0.187,0.776,-5.005,24.170,14.221
1.052,0.218,0.641,2.258,47.852,-3.357
1.026,0.146,0.441,6.226,70.435,-23.926
0.972,-0.032,0.263,8.606,87.280,-45.471
0.911,-0.258,0.116,12.146,97.473,-62.744
0.839,-0.496,-0.074,14.648,105.347,-72.998
0.778,-0.724,-0.263,13.000,108.582,-74.768
0.735,-0.872,-0.392,7.812,104.309,-67.627
0.695,-0.935,-0.486,1.587,95.520,-53.894
0.655,-0.989,-0.579,-4.639,85.632,-39.185
0.634,-1.030,-0.670,-5.981,73.303,-25.146
0.635,-1.000,-0.720,-2.502,57.617,-10.132
0.635,-0.887,-0.690,1.465,39.734,4.761
0.637,-0.731,-0.636,-0.061,25.146,17.700
0.651,-0.580,-0.607,-5.493,15.076,24.841
0.663,-0.467,-0.575,-8.972,6.409,25.696
0.687,-0.377,-0.529,-6.897,-2.197,21.484
0.696,-0.340,-0.457,-2.197,-10.071,14.099
0.708,-0.367,-0.377,-0.244,-16.846,5.859
0.718,-0.426,-0.308,-0.854,-20.874,-0.793
0.727,-0.495,-0.210,-1.648,-25.024,-4.333
0.743,-0.571,-0.100,-2.197,-27.710,-5.676
0.766,-0.587,0.005,-1.709,-27.893,-4.150
0.796,-0.546,0.066,-0.122,-24.292,-1.831
0.816,-0.487,0.082,0.916,-18.127,-1.038
0.831,-0.475,0.067,0.000,-11.414,-3.235
0.835,-0.506,0.022,-0.671,-5.432,-7.080
0.835,-0.536,-0.027,-0.610,-1.709,-10.254
0.833,-0.583,-0.061,0.305,-0.549,-12.512
0.823,-0.659,-0.071,-0.061,-0.427,-13.550
0.820,-0.686,-0.069,-1.831,-0.122,-11.292
0.815,-0.628,-0.094,-3.235,1.282,-6.531
0.815,-0.583,-0.121,-4.150,2.930,-4.517
0.807,-0.595,-0.110,-3.418,2.808,-5.554

0.821,-1.035,-1.260,-28.564,26.611,-22.156
0.740,-1.256,-1.443,-25.696,23.621,-23.071
0.642,-1.411,-1.645,-20.996,17.944,-15.320
0.575,-1.516,-1.875,-14.648,9.399,-3.418
0.511,-1.538,-1.979,-4.944,-9.277,12.939
0.449,-1.439,-1.898,3.052,-36.316,33.752
0.419,-1.254,-1.775,4.700,-59.753,53.955
0.392,-1.084,-1.713,2.502,-74.402,67.200
0.374,-0.889,-1.662,5.676,-85.999,73.730
0.362,-0.693,-1.616,15.869,-97.229,73.425
0.354,-0.548,-1.598,26.245,-107.544,64.941
0.349,-0.479,-1.599,31.311,-118.469,51.392
0.308,-0.453,-1.581,31.311,-132.690,36.865
0.255,-0.478,-1.548,27.649,-150.635,22.766
0.178,-0.544,-1.501,18.372,-170.715,9.583
0.078,-0.659,-1.333,12.085,-193.115,0.305
-0.020,-1.008,-0.845,16.602,-222.046,-8.301
-0.096,-1.405,-0.261,25.818,-244.446,-12.207
-0.129,-1.550,-0.068,30.334,-234.009,-0.366
-0.166,-1.385,-0.347,28.625,-203.369,22.705
-0.268,-1.170,-0.788,40.039,-189.575,39.368
-0.411,-1.068,-1.004,70.984,-213.562,42.480
-0.584,-1.027,-0.874,111.206,-263.306,41.016
-0.823,-0.999,-0.461,150.940,-320.068,40.527
-1.098,-1.011,0.174,186.768,-374.512,39.001
-1.420,-1.316,1.173,218.750,-422.791,33.630
-1.654,-1.856,2.485,251.099,-462.158,29.663
-1.729,-2.132,3.507,254.211,-452.271,46.753
-1.558,-1.757,3.604,223.694,-370.239,88.867
-1.332,-1.272,3.083,205.261,-281.067,119.751
-1.052,-1.001,3.080,231.995,-263.672,120.605
-0.527,-0.904,3.854,274.231,-303.162,111.267
0.052,-0.912,4.000,264.832,-329.834,109.924
0.323,-1.130,4.000,168.640,-311.340,130.188
0.378,-0.864,4.000,-21.973,-221.741,189.941
0.362,0.298,4.000,-188.843,-100.342,277.771
0.193,1.712,3.329,-282.898,-13.794,335.144
0.103,3.051,2.684,-311.096,32.349,330.017
0.070,3.787,2.321,-291.687,53.162,252.808
-0.100,3.488,2.376,-250.427,52.063,97.839
-0.467,2.114,2.754,-205.566,44.922,-80.872
-0.856,0.892,3.006,-167.908,59.326,-192.200
-1.164,0.010,3.088,-139.709,89.355,-243.835
-1.326,-0.600,2.971,-133.606,123.840,-263.550
-1.349,-1.021,2.688,-145.386,157.227,-264.954
-1.252,-1.188,2.316,-163.757,186.401,-251.526
-1.099,-1.063,1.795,-173.828,212.036,-228.271
-0.934,-0.921,1.210,-178.467,229.309,-211.792
-0.739,-0.984,0.789,-177.795,225.769,-211.365
-0.556,-1.169,0.609,-170.593,205.078,-214.661
-0.407,-1.396,0.599,-163.391,180.664,-212.280
-0.243,-1.494,0.565,-156.494,166.565,-197.144
-0.105,-1.438,0.470,-148.926,161.316,-173.889
0.038,-1.355,0.408,-140.015,154.785,-155.212
0.183,-1.270,0.417,-131.409,146.301,-143.433
0.334,-1.152,0.360,-124.939,143.799,-136.658
0.455,-1.118,0.263,-115.845,145.691,-137.146
0.567,-1.214,0.250,-100.220,143.066,-142.944
0.635,-1.389,0.256,-86.182,141.907,-148.499
0.708,-1.549,0.221,-72.510,147.095,-149.048
0.746,-1.638,0.151,-59.143,155.701,-142.761
0.766,-1.679,-0.033,-47.241,170.166,-132.751
0.766,-1.678,-0.286,-35.400,182.556,-120.972
0.749,-1.718,-0.450,-25.330,180.786,-109.863
0.715,-1.814,-0.439,-17.334,168.213,-98.450
0.703,-1.805,-0.372,-10.559,158.203,-81.482
0.690,-1.585,-0.397,-2.014,158.569,-59.082
0.641,-1.412,-0.529,8.057,165.039,-46.875
0.592,-1.352,-0.643,20.447,168.518,-47.119
0.548,-1.268,-0.689,41.504,167.664,-49.561
0.472,-1.135,-0.720,67.932,168.762,-51.575
0.378,-1.017,-0.735,94.971,173.462,-56.580
0.268,-0.939,-0.741,117.676,181.274,-63.782
0.164,-0.819,-0.771,136.719,193.176,-68.665
0.102,-0.719,-0.878,147.583,205.139,-72.693
0.012,-0.784,-1.021,136.169,214.783,-76.538
-0.012,-0.802,-1.219,102.783,220.703,-71.411
0.036,-0.690,-1.528,69.824,221.863,-59.021
0.100,-0.613,-1.837,47.241,208.008,-52.307
0.196,-0.579,-2.036,36.499,175.110,-51.941
0.284,-0.585,-2.047,38.635,127.869,-54.443
0.360,-0.671,-1.818,46.814,73.975,-58.228
0.411,-0.804,-1.406,55.359,24.902,-59.204
0.463,-0.989,-0.977,59.631,-8.423,-55.664
0.491,-1.127,-0.578,58.167,-26.489,-43.640
0.544,-1.187,-0.296,50.659,-31.372,-23.804
0.603,-1.115,-0.227,34.119,-22.095,1.648
0.645,-0.923,-0.339,13.733,-6.897,27.649
0.692,-0.686,-0.395,-0.061,-1.099,45.837
0.723,-0.493,-0.390,-5.859,-2.380,52.612
0.754,-0.324,-0.373,-8.362,-2.380,50.659
0.771,-0.189,-0.393,-5.920,0.488,41.687
0.769,-0.154,-0.396,0.305,3.235,25.452
0.755,-0.258,-0.384,9.277,4.395,5.798
0.723,-0.457,-0.332,17.456,4.883,-10.742
0.688,-0.631,-0.283,23.010,6.714,-18.616
0.669,-0.702,-0.297,25.391,11.902,-17.395
0.650,-0.683,-0.373,27.161,17.761,-12.268
0.634,-0.658,-0.438,26.489,19.531,-8.057
0.619,-0.635,-0.483,23.560,17.883,-6.042
0.606,-0.642,-0.532,18.616,15.198,-5.615
0.594,-0.682,-0.528,14.343,9.827,-5.615
0.578,-0.722,-0.498,10.925,3.296,-4.272
0.566,-0.733,-0.495,6.592,0.000,-1.526
0.569,-0.695,-0.503,2.808,-2.380,2.502
0.580,-0.670,-0.475,0.366,-6.470,4.456
0.592,-0.671,-0.413,-0.610,-10.559,4.272
0.603,-0.685,-0.369,-0.366,-12.207,3.418
0.613,-0.709,-0.338,1.099,-12.146,2.869
0.633,-0.719,-0.338,2.930,-10.986,3.540
0.641,-0.737,-0.330,4.639,-10.681,4.822
0.659,-0.744,-0.269,5.920,-12.695,6.714
0.676,-0.710,-0.226,5.554,-12.451,9.827
0.687,-0.650,-0.252,4.211,-8.728,12.207
0.702,-0.607,-0.290,3.174,-5.493,11.719
0.711,-0.607,-0.305,3.052,-4.883,9.033
0.713,-0.602,-0.321,2.258,-4.944,6.042
0.713,-0.601,-0.341,1.038,-5.066,3.418
0.703,-0.612,-0.333,-0.244,-5.981,0.305

0.143,-0.952,-1.637,9.460,18.311,-6.775
0.101,-0.926,-1.740,12.939,0.732,-4.150
0.074,-0.975,-1.723,18.250,-22.949,-5.554
0.075,-1.057,-1.647,22.461,-46.448,-6.226
0.075,-1.112,-1.597,24.292,-65.063,-2.319
0.082,-1.127,-1.569,23.926,-80.872,5.310
0.102,-1.097,-1.532,22.339,-97.107,15.686
0.145,-1.002,-1.450,19.409,-114.441,26.978
0.193,-0.855,-1.344,18.250,-131.165,36.133
0.238,-0.746,-1.259,16.968,-144.714,39.490
0.276,-0.691,-1.242,13.123,-154.663,38.513
0.297,-0.596,-1.259,10.437,-164.795,38.025
0.304,-0.517,-1.214,11.169,-178.772,36.011
0.298,-0.517,-1.082,14.099,-197.449,30.579
0.270,-0.555,-0.885,15.991,-215.637,25.574
0.276,-0.628,-0.642,21.851,-229.797,23.132
0.328,-0.763,-0.263,31.616,-244.141,20.874
0.364,-0.894,0.009,33.447,-244.690,22.888
0.405,-0.858,0.018,21.851,-224.976,34.302
0.432,-0.682,-0.121,10.376,-203.491,49.622
0.468,-0.593,-0.134,8.606,-195.618,55.725
0.498,-0.501,-0.041,24.658,-195.923,54.504
0.506,-0.294,-0.046,49.622,-189.087,51.086
0.496,-0.123,-0.140,71.899,-179.810,39.429
0.437,-0.120,-0.248,87.219,-176.270,17.456
0.363,-0.182,-0.293,97.168,-179.810,-5.249
0.297,-0.268,-0.289,102.173,-186.646,-25.085
0.173,-0.399,-0.328,100.952,-190.918,-42.725
0.008,-0.528,-0.320,99.487,-198.975,-56.519
-0.157,-0.625,-0.222,104.736,-214.722,-66.956
-0.379,-0.754,-0.042,115.112,-232.727,-77.759
-0.576,-0.982,0.185,126.526,-248.962,-91.003
-0.773,-1.287,0.427,147.827,-263.855,-102.417
-0.955,-1.566,0.755,177.185,-280.945,-104.797
-1.089,-1.828,1.195,205.200,-300.354,-97.229
-1.173,-2.016,1.625,211.914,-315.186,-79.285
-1.152,-2.030,1.921,196.289,-318.481,-48.096
-1.006,-1.780,2.028,166.077,-311.157,-9.949
-0.809,-1.516,2.049,128.479,-303.528,20.813
-0.613,-1.509,2.188,89.050,-304.993,38.574
-0.466,-1.637,2.383,50.842,-304.565,57.739
-0.254,-1.423,2.400,22.522,-286.072,95.581
0.084,-0.867,2.360,3.479,-260.864,140.686
0.450,-0.261,2.367,-12.085,-237.000,168.640
0.729,0.070,2.465,-28.198,-211.243,168.701
0.868,0.106,2.579,-40.894,-179.138,149.719
0.904,0.074,2.644,-53.406,-136.047,132.019
0.843,0.238,2.633,-65.491,-84.167,124.451
0.744,0.577,2.449,-79.285,-25.146,115.173
0.661,0.886,2.175,-94.421,30.151,88.745
0.514,0.892,2.022,-102.417,69.336,40.283
0.316,0.523,2.074,-100.586,92.957,-18.616
0.052,-0.056,2.155,-95.215,114.441,-70.557
-0.231,-0.672,2.163,-94.543,139.343,-101.807
-0.421,-1.226,2.194,-90.515,157.166,-113.586
-0.575,-1.611,2.116,-89.294,172.546,-106.689
-0.702,-1.849,1.948,-101.257,186.707,-87.036
-0.760,-1.794,1.725,-122.986,193.481,-56.335
-0.760,-1.530,1.543,-152.283,191.406,-24.658
-0.725,-1.166,1.464,-179.932,180.603,-5.371
-0.645,-0.829,1.467,-199.463,169.189,-3.296
-0.503,-0.537,1.381,-208.862,168.213,-15.503
-0.374,-0.427,1.315,-199.768,172.607,-41.626
-0.256,-0.481,1.296,-164.978,177.856,-76.538
-0.181,-0.657,1.253,-122.864,186.340,-107.788
-0.156,-0.918,1.086,-93.506,201.172,-128.113
-0.087,-1.057,0.818,-80.994,218.384,-131.409
-0.004,-1.140,0.517,-74.646,229.797,-123.535
0.097,-1.168,0.216,-72.510,231.995,-111.450
0.208,-1.094,-0.077,-72.327,225.647,-95.825
0.328,-1.008,-0.220,-74.768,208.130,-80.872
0.461,-0.918,-0.178,-78.003,184.143,-70.862
0.538,-0.871,-0.086,-80.688,167.175,-65.735
0.620,-0.848,-0.011,-72.998,160.950,-65.674
0.664,-0.879,-0.024,-57.617,163.818,-69.824
0.665,-0.971,-0.108,-39.063,172.668,-73.486
0.679,-0.988,-0.192,-22.949,181.213,-70.740
0.719,-0.937,-0.300,-9.888,189.026,-63.171
0.761,-0.848,-0.418,-2.380,194.214,-57.251
0.776,-0.827,-0.509,2.075,195.190,-55.847
0.757,-0.870,-0.566,1.770,192.871,-58.228
0.721,-0.910,-0.656,0.244,190.674,-59.387
0.652,-1.036,-0.872,-4.944,190.857,-60.059
0.654,-1.231,-1.083,-8.850,183.655,-60.059
0.624,-1.356,-1.105,-8.545,162.109,-51.941
0.603,-1.373,-1.013,-4.822,140.564,-35.767
0.564,-1.244,-0.961,-6.592,131.409,-13.855
0.527,-1.073,-0.967,-11.597,129.211,2.075
0.495,-0.938,-0.986,-15.381,128.235,10.498
0.463,-0.807,-1.003,-14.587,127.014,12.451
0.434,-0.717,-1.028,-10.132,127.319,9.216
0.379,-0.689,-1.050,-4.395,127.991,2.808
0.318,-0.666,-1.034,1.282,128.479,-3.540
0.243,-0.641,-1.035,6.470,130.188,-9.460
0.197,-0.609,-1.091,9.705,133.667,-15.808
0.171,-0.587,-1.203,11.841,135.315,-23.254
0.166,-0.592,-1.333,12.512,131.348,-31.311
0.167,-0.664,-1.425,11.597,119.812,-39.612
0.190,-0.778,-1.516,10.315,102.356,-45.593
0.219,-0.924,-1.569,8.728,79.346,-45.715
0.262,-1.045,-1.503,5.066,48.218,-38.086
0.319,-1.074,-1.341,-1.343,16.174,-21.973
0.390,-1.014,-1.119,-9.949,-10.864,-3.052
0.475,-0.923,-0.863,-19.653,-31.860,13.916
0.551,-0.813,-0.629,-27.039,-45.227,27.405
0.627,-0.691,-0.427,-30.457,-49.988,36.499
0.684,-0.568,-0.256,-29.968,-48.889,41.138
0.727,-0.469,-0.131,-26.184,-43.396,40.100
0.772,-0.398,-0.067,-20.813,-35.095,34.180
0.804,-0.384,-0.023,-14.587,-26.489,24.902
0.828,-0.409,0.006,-7.812,-19.104,14.709
0.841,-0.443,0.034,-1.404,-12.512,5.493
0.844,-0.508,0.064,1.160,-7.324,-1.526
0.847,-0.594,0.078,-0.916,-1.709,-5.981
0.838,-0.649,0.081,-3.784,4.211,-6.958
0.815,-0.676,0.067,-6.958,10.071,-5.981
0.797,-0.696,0.037,-10.071,15.137,-4.333
0.783,-0.686,-0.003,-11.414,19.775,-2.747
0.766,-0.656,-0.037,-10.193,22.949,-2.441

-0.032,-1.197,-1.735,52.063,75.867,-6.775
-0.084,-1.074,-2.047,52.673,67.261,6.042
-0.114,-0.948,-2.384,50.842,50.598,13.184
-0.104,-0.932,-2.560,48.035,19.470,11.353
-0.058,-0.937,-2.525,44.128,-22.888,8.484
-0.030,-1.047,-2.389,50.598,-64.636,3.662
-0.031,-1.112,-2.174,56.152,-100.220,1.160
0.000,-1.214,-1.844,62.744,-133.362,1.587
0.058,-1.397,-1.548,63.965,-156.006,3.906
0.123,-1.523,-1.281,61.157,-167.542,15.625
0.193,-1.449,-1.110,62.012,-171.143,38.208
0.237,-1.249,-1.083,60.730,-167.480,62.744
0.261,-0.991,-1.122,58.105,-165.344,81.543
0.255,-0.747,-1.136,56.335,-170.837,91.797
0.260,-0.529,-1.088,57.129,-182.129,93.506
0.279,-0.353,-0.964,63.599,-196.167,87.219
0.256,-0.274,-0.861,74.707,-207.581,73.059
0.207,-0.335,-0.693,86.121,-218.384,54.199
0.152,-0.425,-0.522,93.628,-227.112,37.842
0.091,-0.532,-0.377,100.220,-229.309,26.245
0.032,-0.613,-0.234,111.206,-230.774,17.334
-0.048,-0.636,-0.174,129.089,-230.164,10.864
-0.143,-0.614,-0.183,149.536,-229.736,4.211
-0.284,-0.606,-0.199,168.091,-235.291,-4.333
-0.434,-0.601,-0.114,182.983,-250.427,-15.198
-0.598,-0.605,0.115,196.167,-274.597,-28.442
-0.752,-0.672,0.391,201.599,-298.218,-43.091
-0.925,-0.819,0.680,193.115,-317.200,-57.556
-1.135,-1.026,0.974,172.302,-332.642,-68.848
-1.315,-1.162,1.292,151.367,-344.849,-71.838
-1.430,-1.272,1.660,142.151,-357.666,-71.167
-1.460,-1.339,2.000,140.503,-365.356,-70.984
-1.379,-1.370,2.294,136.169,-363.525,-70.496
-1.099,-1.255,2.594,142.029,-356.262,-66.467
-0.590,-1.060,3.022,159.851,-348.694,-68.848
0.049,-0.847,3.441,178.772,-326.965,-80.017
0.580,-0.916,3.672,182.129,-279.236,-100.037
1.039,-1.288,3.567,153.564,-211.304,-116.089
1.322,-1.756,3.176,93.018,-139.709,-107.178
1.461,-1.963,2.838,19.714,-84.656,-59.021
1.450,-1.607,2.772,-52.734,-46.997,19.897
1.260,-0.814,2.760,-111.877,-7.751,97.534
1.014,0.017,2.593,-154.053,43.274,135.437
0.759,0.476,2.401,-173.706,89.844,122.986
0.486,0.334,2.306,-176.270,120.361,70.801
0.218,-0.198,2.359,-170.227,139.404,12.634
-0.042,-0.784,2.463,-167.969,157.166,-25.208
-0.284,-1.254,2.422,-171.509,180.298,-39.429
-0.441,-1.612,2.216,-187.683,203.491,-36.865
-0.557,-1.850,1.966,-211.243,216.248,-25.146
-0.599,-1.909,1.767,-223.083,212.952,-7.874
-0.596,-1.664,1.711,-217.834,197.083,17.029
-0.516,-1.216,1.680,-213.501,182.068,38.452
-0.418,-0.782,1.619,-218.201,176.453,43.579
-0.276,-0.427,1.503,-223.389,177.490,32.166
-0.133,-0.308,1.350,-228.088,181.824,4.028
-0.025,-0.408,1.201,-225.769,185.913,-32.532
0.037,-0.551,1.204,-210.449,184.265,-66.833
0.096,-0.665,1.124,-184.753,190.918,-93.445
0.164,-0.740,0.936,-159.668,204.773,-112.488
0.152,-0.882,0.759,-131.042,215.088,-129.150
0.178,-0.963,0.566,-100.525,223.267,-139.099
0.171,-0.950,0.288,-72.021,235.474,-140.686
0.192,-0.959,-0.030,-56.824,247.070,-143.616
0.241,-0.996,-0.317,-52.429,250.366,-147.339
0.247,-1.043,-0.470,-43.762,240.845,-146.851
0.283,-1.111,-0.529,-37.720,224.487,-143.372
0.289,-1.258,-0.552,-41.199,212.891,-140.991
0.305,-1.371,-0.701,-45.044,207.031,-134.399
0.343,-1.383,-0.787,-46.387,194.153,-120.178
0.365,-1.449,-0.734,-51.575,173.096,-108.032
0.360,-1.610,-0.672,-57.739,156.250,-98.206
0.352,-1.712,-0.625,-66.895,143.860,-80.933
0.362,-1.638,-0.640,-72.388,137.207,-53.040
0.378,-1.436,-0.705,-74.219,134.705,-26.123
0.349,-1.221,-0.756,-73.120,131.592,-5.981
0.317,-0.978,-0.826,-68.542,126.221,5.249
0.287,-0.829,-0.834,-63.721,118.408,6.104
0.291,-0.694,-0.809,-59.570,110.657,1.892
0.288,-0.585,-0.785,-54.077,106.567,-6.470
0.275,-0.593,-0.783,-49.133,105.957,-21.667
0.245,-0.717,-0.794,-43.579,107.056,-38.330
0.229,-0.840,-0.788,-33.997,106.750,-49.805
0.206,-0.914,-0.833,-24.475,108.704,-55.176
0.153,-0.970,-0.969,-21.606,113.586,-57.800
0.126,-1.061,-1.135,-24.780,113.708,-60.303
0.106,-1.232,-1.267,-24.475,105.469,-59.998
0.097,-1.362,-1.358,-18.127,89.783,-51.758
0.121,-1.415,-1.375,-15.259,69.275,-37.354
0.154,-1.333,-1.317,-14.221,46.997,-18.921
0.222,-1.257,-1.110,-8.911,24.231,-4.089
0.272,-1.241,-0.908,-7.812,6.470,5.737
0.342,-1.148,-0.786,-9.766,0.427,18.799
0.414,-1.043,-0.736,-9.949,-2.197,30.518
0.498,-0.885,-0.633,-3.662,-7.141,39.307
0.574,-0.685,-0.427,3.845,-14.160,43.701
0.628,-0.603,-0.289,-1.404,-13.062,40.833
0.679,-0.596,-0.261,-17.212,-3.967,34.851
0.723,-0.532,-0.252,-26.306,2.136,32.227
0.764,-0.500,-0.206,-27.161,3.479,28.076
0.793,-0.499,-0.165,-20.874,5.127,20.264
0.803,-0.502,-0.176,-9.460,9.033,11.719
0.798,-0.517,-0.196,1.282,11.230,3.479
0.783,-0.585,-0.207,6.348,10.132,-5.249
0.766,-0.684,-0.224,6.409,8.301,-11.780
0.756,-0.770,-0.233,3.235,5.981,-14.526
0.729,-0.858,-0.230,0.061,2.380,-14.648
0.722,-0.849,-0.241,-5.493,0.000,-10.559
0.693,-0.901,-0.237,-11.963,-2.258,-6.897
0.651,-0.915,-0.228,-19.104,-4.517,-3.418
0.645,-0.894,-0.244,-23.132,-5.127,1.892
0.628,-0.875,-0.278,-25.452,-5.249,5.981
0.611,-0.860,-0.347,-25.085,-5.188,8.057
0.585,-0.833,-0.378,-21.790,-9.277,9.521
0.571,-0.819,-0.367,-16.968,-17.700,9.888
0.549,-0.806,-0.367,-14.038,-25.940,9.583
0.536,-0.809,-0.379,-14.526,-33.997,10.010
0.530,-0.799,-0.361,-17.883,-43.579,12.268
0.511,-0.792,-0.344,-21.118,-53.589,16.479

0.416,0.715,-0.691,8.972,-44.067,-39.795
0.218,0.726,-0.734,118.103,-20.142,-42.969
0.294,0.715,-0.516,96.802,-35.339,-46.570
0.215,0.650,-0.703,150.513,-51.880,-28.076
0.056,0.789,-0.491,126.404,-54.871,-4.211
-0.138,0.821,-0.530,149.597,-51.392,-9.155
-0.127,0.542,-0.332,71.899,-47.485,-17.212
-0.127,1.391,-0.324,34.912,-28.992,-25.574
0.046,1.003,-0.659,153.076,-16.846,11.658
0.001,0.931,-0.281,151.489,-69.031,8.667
0.003,0.955,-0.464,102.112,-84.656,-17.273
0.100,0.867,-0.188,-10.986,-55.542,-25.208
0.141,0.776,-0.320,-62.927,-5.554,-32.959
0.068,0.740,-0.450,-151.001,30.029,-43.884
-0.125,0.863,-0.604,-231.812,51.453,-58.960
-0.026,0.801,-0.629,-273.804,60.974,-59.082
0.004,0.744,-0.696,-228.394,53.040,-53.040
0.092,0.718,-0.767,-188.354,32.776,-39.795
0.086,0.689,-0.726,-136.780,13.123,-28.503
0.105,0.665,-0.732,-88.379,1.099,-18.982
0.130,0.702,-0.724,-49.622,-8.972,-4.333
0.081,0.736,-0.741,-25.024,-18.799,3.296
0.068,0.703,-0.697,-14.648,-25.391,3.784
0.068,0.696,-0.615,-18.433,-27.344,5.188
0.021,0.693,-0.693,-33.203,-27.344,4.761
0.099,0.756,-0.664,-56.396,-32.349,6.348
0.202,0.720,-0.712,-46.204,-35.400,-6.042
0.159,0.611,-0.582,-61.768,-29.846,-17.578
0.249,0.701,-0.745,-67.017,-10.803,-13.733
0.399,0.608,-0.697,-74.219,-10.925,-16.418
0.362,0.635,-0.763,-80.627,-21.240,-13.489
0.269,0.645,-0.789,-62.317,-25.513,-12.329
0.191,0.629,-0.772,-51.392,-25.269,-15.137
0.121,0.604,-0.692,-62.500,-19.409,-21.973
0.100,0.673,-0.799,-94.421,-10.376,-24.048
0.164,0.563,-0.747,-120.850,-6.348,-26.062
0.200,0.615,-0.829,-119.141,-7.996,-27.588
0.216,0.531,-0.745,-131.592,-11.658,-22.644
0.462,0.616,-0.714,-117.859,-17.456,-24.536
0.608,0.768,-0.673,-89.172,-21.667,-5.981
0.439,0.697,-0.563,-9.644,-18.372,9.277
0.186,0.661,-0.654,43.579,-9.705,8.484
0.070,0.708,-0.695,-0.122,-2.625,0.671
0.135,0.785,-0.764,-31.555,7.507,-8.545
0.143,0.665,-0.777,-38.513,11.719,-23.804
0.174,0.614,-0.790,-60.059,19.043,-29.846
0.184,0.589,-0.831,-71.960,26.306,-31.372
0.210,0.491,-0.859,-69.336,28.564,-32.043
0.237,0.470,-0.903,-57.007,26.733,-29.541
0.207,0.502,-0.857,-39.246,24.719,-22.217
0.223,0.510,-0.862,-11.780,18.188,-13.489
0.226,0.397,-0.850,3.967,9.460,-7.202
0.232,0.500,-0.987,23.682,5.920,-1.526
0.227,0.445,-0.852,13.977,6.348,1.160
0.239,0.390,-0.763,22.217,8.362,0.854
0.175,0.507,-0.978,5.615,11.353,4.089
0.140,0.457,-0.924,-2.502,15.015,2.747
0.196,0.524,-0.918,1.038,14.587,4.517
0.149,0.531,-0.868,2.686,11.780,7.385
0.227,0.507,-0.853,9.949,9.033,9.827
0.184,0.433,-0.746,9.827,8.606,11.475
0.175,0.511,-0.825,17.334,12.085,17.334
0.134,0.504,-0.776,8.667,16.602,20.325
0.109,0.612,-0.757,30.823,15.808,20.264
0.086,0.586,-0.899,33.203,13.123,27.405
0.027,0.464,-0.908,28.809,7.874,30.762
-0.017,0.535,-0.942,24.475,3.357,35.889
0.005,0.470,-0.799,38.086,0.122,36.987
-0.004,0.460,-0.715,60.974,2.258,39.063
-0.085,0.481,-0.768,44.678,13.428,39.490
-0.062,0.480,-0.829,13.184,21.240,34.180
-0.016,0.656,-0.905,-20.935,25.574,25.269
0.089,0.359,-0.806,-8.057,28.931,17.639
0.055,0.629,-1.017,44.495,29.114,24.048
-0.046,0.463,-0.966,59.570,26.123,21.851
0.053,0.559,-0.854,81.055,22.827,19.775
-0.069,0.478,-0.848,99.915,19.775,22.217
-0.014,0.600,-0.839,128.967,17.395,35.889
-0.090,0.494,-0.795,181.946,6.897,44.434
-0.188,0.683,-0.700,210.022,1.343,43.884
-0.149,0.761,-0.676,206.238,6.409,38.513
0.253,0.778,-0.610,184.326,10.193,30.396
0.159,0.599,-0.607,154.419,20.203,19.104
0.200,0.908,-0.669,130.737,25.085,21.057
0.171,0.753,-0.605,111.511,19.653,8.240
0.133,0.786,-0.595,97.717,9.888,3.601
0.064,0.770,-0.591,80.444,2.075,2.075
0.058,0.787,-0.576,62.195,-1.465,2.258
0.061,0.786,-0.574,40.894,-1.770,3.723
0.060,0.793,-0.574,20.142,-1.709,3.235
0.062,0.790,-0.578,2.197,-1.404,0.854
0.066,0.786,-0.589,-11.047,0.183,-0.793
0.066,0.785,-0.605,-18.494,1.770,-1.404
0.066,0.782,-0.611,-20.325,1.465,-1.404
0.063,0.781,-0.613,-18.982,-0.488,-0.854
0.063,0.782,-0.611,-17.151,-1.953,0.183
0.067,0.778,-0.609,-16.663,-2.625,0.671
0.064,0.778,-0.612,-17.334,-2.075,0.488
0.063,0.775,-0.620,-17.273,-0.977,-0.061
0.065,0.774,-0.628,-14.465,-0.122,-0.427
0.064,0.771,-0.634,-7.935,0.366,-0.366
0.065,0.770,-0.635,0.488,0.122,0.244
0.067,0.772,-0.631,9.521,-0.061,0.854
0.068,0.771,-0.623,16.907,-0.305,1.343
0.065,0.775,-0.618,21.179,-0.183,1.526
0.063,0.778,-0.613,21.912,0.122,1.526
0.063,0.780,-0.608,20.081,0.183,1.343
0.065,0.780,-0.603,16.968,0.122,1.221
0.065,0.781,-0.601,13.000,-0.061,1.038
0.062,0.784,-0.599,8.423,-0.183,1.099
0.062,0.786,-0.599,4.089,-0.427,0.793
0.062,0.786,-0.599,0.244,-0.549,0.610
0.063,0.787,-0.601,-3.357,-0.610,0.549
0.065,0.783,-0.601,-6.897,-0.732,0.549
0.065,0.781,-0.605,-9.705,-0.732,0.305
0.063,0.780,-0.611,-11.597,-0.793,0.183
0.065,0.779,-0.617,-11.597,-0.488,0.000
0.066,0.776,-0.620,-9.399,-0.244,0.061
0.066,0.774,-0.622,-5.615,-0.183,0.244

