ACC_X,ACC_Y,ACC_Z,GIR_X,GIR_Y,GIR_Z
0.0,0.0,0.0,0.0,0.0,0.0
-0.16,-0.02,0.21,-41.02,170.04,2.08
-0.04,-0.07,0.12,-25.63,163.45,-0.55
0.02,-0.1,0.05,-23.86,161.38,0.12
0.13,-0.14,-0.12,-20.2,149.29,2.56
0.18,-0.14,-0.22,-24.48,128.05,6.29
0.27,-0.11,-0.29,-26.37,117.37,7.39
0.39,-0.04,-0.33,-25.15,89.54,7.51
0.45,-0.0,-0.36,-22.83,78.25,6.16
0.55,-0.0,-0.48,-18.19,59.69,-1.95
0.59,-0.01,-0.56,-8.3,35.46,-7.2
0.68,-0.03,-0.6,-8.67,24.54,-8.67
0.73,0.06,-0.72,-6.16,4.64,-4.94
0.78,0.08,-0.72,2.14,-9.58,-5.8
0.81,0.07,-0.69,17.4,-34.97,-8.61
0.85,0.09,-0.63,24.48,-44.13,-9.83
0.82,0.1,-0.62,21.97,-46.45,-12.02
0.73,0.06,-0.61,24.29,-55.54,-17.88
0.66,-0.02,-0.58,29.54,-63.84,-22.34
0.57,-0.29,-0.52,31.62,-84.17,-26.43
0.51,-0.3,-0.45,32.71,-107.73,0.43
0.38,-0.19,-0.3,38.57,-117.43,11.9
0.26,-0.13,-0.21,47.18,-133.67,24.17
0.17,-0.09,-0.14,51.7,-143.43,25.33
-0.02,-0.21,-0.06,54.63,-161.5,12.82
-0.1,-0.31,-0.03,47.3,-181.76,4.46
-0.22,-0.35,0.13,44.92,-193.36,9.7
-0.42,-0.15,0.33,54.63,-207.03,24.66
-0.52,-0.16,0.4,58.96,-210.63,22.34
-0.69,-0.29,0.5,49.68,-219.91,10.5
-0.77,-0.31,0.52,40.41,-228.94,10.86
-0.96,-0.32,0.77,49.56,-236.63,11.29
-1.0,-0.3,1.01,58.17,-226.75,21.73
-0.97,-0.25,1.03,53.71,-211.06,29.97
-0.91,-0.03,1.0,57.31,-185.61,39.12
-0.92,-0.01,1.01,81.97,-175.48,24.11
-0.99,-0.22,1.1,92.04,-175.54,14.4
-1.14,-0.31,1.35,88.68,-173.52,16.11
-1.18,-0.24,1.44,81.42,-169.31,17.64
-1.12,-0.41,1.61,69.58,-173.1,-5.25
-1.09,-0.58,1.68,34.85,-166.02,-14.59
-1.12,-0.64,1.85,23.5,-164.55,-9.64
-1.12,-0.5,2.21,10.68,-156.19,2.2
-1.07,-0.36,2.33,10.86,-143.49,8.91
-1.07,-0.36,2.48,19.96,-119.45,-3.66
-1.06,-0.53,2.53,41.26,-94.06,-17.4
-1.09,-0.74,2.64,46.26,-79.71,-12.45
-1.16,-0.72,2.82,38.33,-51.21,1.1
-1.18,-0.7,2.84,23.56,-32.53,3.11
-1.15,-0.66,2.75,-7.51,9.95,-0.55
-1.14,-0.69,2.67,-16.91,43.64,-4.27
-1.17,-0.64,2.61,-26.25,57.13,-2.81
-1.22,-0.5,2.45,-42.79,94.85,-2.08
-1.22,-0.41,2.34,-47.06,112.24,-3.05
-1.2,-0.41,2.11,-37.11,140.56,-10.31
-1.18,-0.46,1.99,-26.37,164.55,-13.24
-1.12,-0.54,1.74,-10.62,175.78,-12.15
-1.08,-0.6,1.52,-9.89,193.12,-6.47
-1.06,-0.6,1.42,-14.47,199.65,-2.5
-1.0,-0.61,1.24,-32.47,211.12,2.56
-0.98,-0.57,1.15,-40.53,218.08,6.1
-0.92,-0.51,1.02,-52.61,219.24,6.35
-0.86,-0.5,0.97,-58.59,220.7,7.57
-0.85,-0.51,0.97,-53.83,221.13,10.25
-0.8,-0.5,0.86,-54.57,232.3,18.98
-0.76,-0.44,0.77,-55.73,239.44,27.83
-0.7,-0.39,0.62,-45.65,239.87,29.48
-0.62,-0.39,0.46,-49.68,233.95,29.11
-0.55,-0.38,0.41,-57.01,227.78,27.53
-0.43,-0.29,0.34,-66.16,213.01,24.66
-0.39,-0.24,0.29,-65.67,207.82,25.45
-0.26,-0.13,0.14,-58.41,199.34,26.06
-0.13,-0.1,0.02,-49.87,184.27,23.19
-0.06,-0.09,-0.08,-44.49,176.33,22.09
0.08,-0.06,-0.27,-36.44,150.09,20.57
0.15,-0.05,-0.32,-36.56,132.32,16.66
0.3,-0.03,-0.4,-44.19,102.17,15.14
0.46,0.01,-0.62,-38.7,81.3,13.79
0.57,0.03,-0.76,-30.58,67.14,12.63
0.72,0.01,-0.88,-17.03,15.38,14.95
0.74,0.08,-0.8,-11.66,-17.64,40.04
0.8,0.26,-0.54,9.03,-55.11,44.62
0.78,0.28,-0.53,26.31,-40.34,27.53
0.75,0.25,-0.54,25.33,-34.12,11.05
0.66,0.16,-0.47,13.37,-37.54,-14.22
0.63,0.17,-0.43,9.83,-41.56,-18.37
0.6,0.12,-0.38,13.43,-53.1,-22.52
0.56,0.17,-0.22,15.5,-62.68,-18.43
0.52,0.17,-0.18,15.2,-61.28,-19.96
0.46,0.1,-0.19,9.46,-56.34,-28.32
0.41,0.05,-0.18,5.86,-58.65,-29.54
0.33,-0.06,-0.16,6.29,-69.82,-19.41
0.27,-0.1,-0.12,13.98,-89.6,-1.71
0.24,-0.09,-0.06,19.17,-101.5,6.16
0.17,-0.03,0.1,36.19,-116.7,16.17
0.12,-0.04,0.18,47.06,-121.34,16.36
0.02,-0.1,0.32,60.0,-125.12,12.39
-0.07,-0.32,0.43,52.86,-122.56,6.1
-0.13,-0.39,0.53,49.87,-120.06,9.58
-0.17,-0.34,0.66,56.21,-107.54,30.7
-0.2,-0.28,0.72,65.31,-99.37,40.77
-0.29,-0.23,0.75,84.47,-81.91,53.89
-0.42,-0.19,0.8,105.71,-78.61,56.46
-0.47,-0.23,0.85,112.61,-83.68,48.77
-0.46,-0.38,0.86,101.2,-93.08,31.86
-0.45,-0.41,0.88,90.03,-100.89,28.08
-0.48,-0.33,1.03,85.14,-124.45,29.48
-0.53,-0.43,1.35,85.94,-145.94,19.35
-0.53,-0.48,1.48,81.6,-146.12,16.54
-0.49,-0.53,1.58,63.54,-127.87,12.57
-0.47,-0.43,1.59,58.72,-117.37,14.65
-0.43,-0.35,1.57,67.63,-104.0,8.85
-0.44,-0.45,1.62,72.81,-99.49,-7.32
-0.46,-0.56,1.6,66.53,-97.84,-18.07
-0.36,-0.67,1.6,43.95,-98.94,-31.62
-0.32,-0.59,1.59,37.6,-99.85,-31.07
-0.26,-0.7,1.71,38.27,-108.64,-39.79
-0.24,-0.67,1.76,23.01,-97.84,-32.59
-0.22,-0.68,1.77,20.45,-94.3,-31.74
-0.19,-0.72,1.87,15.69,-89.72,-28.87
-0.2,-0.73,1.89,10.56,-84.59,-25.27
-0.25,-0.72,2.03,8.06,-81.3,-19.04
-0.3,-0.77,2.24,7.02,-75.13,-18.01
-0.37,-0.81,2.31,0.73,-65.0,-16.6
-0.43,-0.79,2.37,-19.84,-35.4,-10.13
-0.46,-0.77,2.35,-30.4,-18.31,-7.39
-0.54,-0.73,2.35,-37.72,10.5,-2.2
-0.57,-0.64,2.26,-43.03,45.59,5.37
-0.62,-0.58,2.19,-46.57,62.44,7.69
-0.6,-0.5,1.98,-53.71,93.2,8.3
-0.59,-0.48,1.87,-57.74,105.47,6.04
-0.55,-0.5,1.72,-62.38,120.61,-0.24
-0.53,-0.52,1.56,-75.32,133.73,-2.93
-0.5,-0.54,1.48,-81.18,137.88,-2.2
-0.45,-0.51,1.32,-88.68,141.24,1.34
-0.41,-0.48,1.25,-90.7,139.28,3.23
-0.34,-0.41,1.17,-100.1,134.22,5.49
-0.33,-0.35,1.15,-104.74,128.3,7.75
-0.35,-0.24,1.15,-102.54,125.49,7.2
-0.32,-0.19,1.08,-90.09,125.98,3.48
-0.27,-0.21,1.01,-78.92,124.76,-0.67
-0.22,-0.26,0.97,-51.57,110.66,-6.53
-0.2,-0.28,0.96,-33.81,100.89,-4.39
-0.24,-0.25,0.94,-32.47,101.32,-1.71
-0.26,-0.21,0.85,-33.45,109.5,0.92
-0.25,-0.19,0.79,-39.49,113.53,0.24
-0.25,-0.13,0.62,-51.57,117.98,-1.71
-0.24,-0.13,0.55,-56.95,112.67,-4.76
-0.18,-0.07,0.41,-61.28,107.97,-6.29
-0.12,-0.01,0.28,-69.89,97.78,-10.5
-0.07,0.05,0.2,-69.34,92.29,-11.6
0.0,0.16,0.11,-57.98,76.9,-15.99
0.03,0.2,0.08,-39.49,63.23,-26.0
0.04,0.14,-0.06,-31.07,56.76,-34.79
0.13,-0.08,-0.27,-26.61,42.05,-48.65
0.18,-0.11,-0.31,-27.28,30.27,-46.08
0.29,-0.04,-0.26,-27.22,6.53,-35.71
0.35,0.06,-0.27,-20.08,3.78,-26.86
0.44,0.2,-0.31,-8.79,5.62,-26.18
0.51,0.14,-0.42,18.68,9.16,-30.46
0.57,0.06,-0.46,27.22,4.76,-32.47
0.63,-0.06,-0.46,29.91,-7.63,-29.6
0.62,-0.12,-0.43,29.36,-26.06,-21.06
0.58,-0.23,-0.35,27.34,-35.71,-16.3
0.54,-0.26,-0.29,21.79,-51.51,-6.59
0.5,-0.26,-0.24,23.62,-60.18,-1.4
0.44,-0.25,-0.11,30.94,-75.32,9.22
0.39,-0.24,-0.05,38.94,-90.03,17.94
0.28,-0.26,0.14,41.38,-96.5,20.94
0.12,-0.27,0.29,38.27,-98.02,27.65
0.05,-0.25,0.32,39.86,-95.28,32.1
0.01,-0.24,0.41,53.16,-95.34,37.17
-0.03,-0.2,0.56,75.93,-102.97,43.64
-0.1,-0.18,0.81,85.27,-101.75,41.93
-0.16,-0.32,0.97,72.94,-96.56,34.91
-0.2,-0.35,1.08,58.53,-91.49,36.56
-0.3,-0.34,1.28,47.0,-67.44,50.78
-0.32,-0.26,1.35,88.56,-32.04,78.92
-0.32,0.06,1.5,102.84,-15.99,88.5
-0.31,0.18,1.49,133.73,13.0,79.47
-0.28,0.15,1.44,132.26,21.3,62.93
-0.2,-0.04,1.29,122.74,21.12,23.99
-0.15,-0.2,1.25,114.81,-1.34,-0.12
-0.08,-0.43,1.26,89.42,-13.79,-2.38
-0.04,-0.46,1.22,55.85,-33.08,1.89
0.0,-0.36,1.23,39.12,-43.88,3.42
0.07,-0.23,1.37,16.78,-66.83,-10.38
0.1,-0.22,1.46,14.22,-78.0,-26.73
0.19,-0.27,1.55,11.54,-76.9,-33.57
0.26,-0.61,1.64,15.08,-77.45,-46.26
0.28,-0.75,1.72,17.94,-78.31,-44.07
0.29,-0.82,1.9,14.83,-77.09,-23.8
0.28,-0.77,2.04,14.28,-78.12,-6.53
0.23,-0.76,2.33,9.09,-73.73,-6.04
0.13,-1.04,2.51,-8.42,-56.7,-12.82
0.05,-1.15,2.56,-24.6,-43.52,-9.4
-0.03,-0.97,2.46,-62.5,-7.02,14.04
-0.05,-0.82,2.34,-75.56,6.1,26.49
-0.08,-0.51,2.15,-90.58,18.62,25.45
-0.14,-0.46,2.03,-97.23,26.25,10.38
-0.16,-0.5,1.97,-101.14,32.59,3.54
-0.21,-0.49,1.82,-103.21,50.9,4.15
-0.24,-0.43,1.73,-102.42,63.72,13.24
-0.24,-0.3,1.49,-93.81,87.65,15.5
-0.21,-0.28,1.32,-81.67,99.3,12.76
-0.2,-0.26,1.22,-79.71,104.61,11.84
-0.21,-0.2,1.05,-77.64,107.85,11.9
-0.24,-0.16,0.99,-76.6,106.2,11.66
-0.28,-0.07,0.85,-75.62,104.37,8.42
-0.28,0.03,0.79,-76.23,98.69,0.73
-0.29,0.06,0.76,-74.04,96.01,-4.46
-0.3,0.1,0.71,-73.97,94.67,-15.81
-0.27,0.11,0.64,-76.66,95.46,-22.28
-0.2,0.09,0.56,-83.07,91.55,-35.03
-0.18,0.06,0.53,-84.47,90.58,-40.83
-0.18,0.06,0.52,-80.51,92.77,-40.41
-0.18,0.02,0.49,-60.91,97.84,-36.07
-0.15,0.01,0.42,-53.16,104.31,-33.51
-0.06,0.1,0.24,-23.19,109.62,-27.34
0.04,0.0,0.11,-0.37,95.46,-34.61
0.09,-0.07,0.04,-5.68,87.71,-38.27
0.2,-0.03,-0.14,-28.5,75.26,-36.5
0.29,-0.01,-0.25,-34.61,68.97,-37.48
0.49,0.09,-0.42,-35.52,54.57,-36.68
0.6,0.15,-0.63,-11.17,40.47,-36.87
0.65,0.08,-0.75,4.88,29.11,-39.25
0.68,0.01,-0.71,32.96,-10.13,-36.07
0.67,-0.03,-0.64,37.72,-26.86,-34.24
0.62,-0.04,-0.62,23.13,-43.15,-27.77
0.53,-0.02,-0.59,21.12,-61.28,-24.05
0.5,-0.05,-0.53,27.22,-72.02,-24.11
0.46,-0.1,-0.43,43.76,-87.4,-19.1
0.42,-0.1,-0.37,47.0,-93.38,-14.4
0.36,-0.12,-0.28,58.72,-104.61,-5.86
0.27,-0.2,-0.25,74.34,-117.61,-3.42
0.22,-0.25,-0.19,78.19,-129.03,-3.97
0.05,-0.33,0.0,80.99,-151.43,-2.14
-0.05,-0.34,0.13,78.06,-161.62,0.55
-0.26,-0.37,0.36,71.96,-173.65,4.58
-0.41,-0.37,0.52,58.78,-176.64,4.76
-0.5,-0.4,0.61,51.7,-179.38,1.65
-0.58,-0.49,0.84,43.09,-190.92,-3.42
-0.59,-0.52,0.99,39.18,-194.76,-1.59
-0.7,-0.53,1.23,27.83,-179.32,18.98
-0.85,-0.26,1.29,29.11,-141.05,55.24
-0.86,-0.05,1.28,40.22,-124.27,65.49
-0.88,0.09,1.32,60.97,-111.08,49.44
-0.85,0.0,1.33,61.46,-110.78,28.2
-0.77,-0.28,1.35,32.9,-105.16,-1.89
-0.75,-0.23,1.34,21.18,-103.21,6.41
-0.72,-0.28,1.48,24.41,-115.3,6.16
-0.73,-0.17,1.66,15.5,-114.69,16.72
-0.71,-0.14,1.67,5.13,-108.15,15.01
-0.63,-0.08,1.74,-5.07,-104.25,3.11
-0.61,-0.16,1.92,8.12,-112.18,-14.04
-0.58,-0.27,2.04,17.82,-115.66,-20.02
-0.52,-0.4,2.3,35.4,-112.43,-21.06
-0.51,-0.49,2.42,40.89,-104.61,-18.86
-0.56,-0.55,2.65,51.27,-78.74,-4.76
-0.61,-0.6,2.84,55.24,-46.02,5.43
-0.68,-0.66,2.85,49.87,-25.27,11.35
-0.71,-0.6,2.78,27.1,16.6,22.16
-0.72,-0.51,2.72,15.5,35.4,26.31
-0.74,-0.41,2.53,1.22,63.78,20.57
-0.75,-0.42,2.48,-2.99,75.2,7.08
-0.78,-0.49,2.44,-7.57,84.59,2.2
-0.83,-0.56,2.31,-13.92,105.1,-2.01
-0.84,-0.62,2.23,-14.16,114.56,-3.05
-0.83,-0.74,2.05,-14.83,135.74,-1.28
-0.82,-0.75,1.93,-24.29,154.97,6.53
-0.79,-0.76,1.74,-30.88,162.48,10.93
-0.79,-0.71,1.58,-40.53,173.83,20.94
-0.8,-0.72,1.52,-46.39,178.34,23.13
-0.8,-0.77,1.41,-68.66,190.06,24.41
-0.79,-0.77,1.3,-97.29,202.58,26.55
-0.78,-0.71,1.15,-105.29,201.84,29.54
-0.79,-0.63,1.09,-113.16,199.95,35.1
-0.79,-0.6,1.05,-116.94,201.35,35.16
-0.78,-0.46,0.9,-121.28,209.41,34.12
-0.78,-0.42,0.82,-113.77,215.39,27.4
-0.75,-0.35,0.71,-107.91,221.07,27.71
-0.76,-0.26,0.56,-97.29,238.04,33.14
-0.75,-0.21,0.46,-93.81,245.61,35.95
-0.73,-0.17,0.21,-93.99,254.88,36.68
-0.72,-0.17,0.06,-88.87,245.97,39.67
-0.62,-0.11,-0.24,-80.75,229.61,41.32
-0.45,-0.01,-0.38,-68.85,174.74,41.63
-0.38,0.05,-0.38,-69.7,143.49,39.37
-0.26,0.19,-0.41,-73.55,92.41,29.72
-0.21,0.23,-0.49,-81.67,50.54,25.94
0.03,0.56,-0.4,-66.53,48.77,19.65
0.23,0.57,-0.56,-30.64,78.61,-20.14
0.31,0.51,-0.66,-7.39,84.53,-41.44
0.57,0.28,-0.87,34.97,74.95,-72.2
0.76,0.19,-1.02,47.36,54.2,-79.16
1.05,0.1,-1.11,44.86,36.56,-77.51
1.18,0.11,-1.06,15.32,10.44,-69.58
1.2,0.18,-1.04,-4.94,1.71,-59.94
1.18,0.26,-0.99,-19.9,-12.45,-45.96
1.14,0.2,-0.93,-15.08,-25.94,-39.43
0.99,0.01,-0.9,-9.34,-30.94,-35.16
0.85,-0.04,-0.77,-15.81,-56.21,-18.31
0.78,-0.08,-0.64,-17.7,-73.73,-10.99
0.6,-0.11,-0.42,-19.47,-96.8,5.31
0.51,-0.07,-0.38,-15.32,-114.44,20.57
0.36,-0.09,-0.3,9.64,-126.22,22.58
0.21,-0.2,-0.23,25.82,-144.59,27.1
0.16,-0.26,-0.28,26.98,-149.78,29.85
0.1,-0.2,-0.3,34.97,-173.58,41.38
0.02,-0.12,-0.23,45.9,-202.03,51.45
-0.17,0.03,-0.11,73.06,-208.25,50.35
-0.38,-0.04,-0.05,96.86,-219.06,35.34
-0.46,-0.17,0.02,107.79,-224.49,24.9
-0.61,-0.54,0.11,119.81,-230.53,10.62
-0.64,-0.63,0.13,120.73,-231.63,25.7
-0.77,-0.57,0.26,119.45,-236.33,36.56
-0.96,-0.44,0.41,121.03,-239.07,48.22
-1.09,-0.4,0.51,121.95,-240.23,46.75
-1.24,-0.48,0.72,135.44,-242.0,36.13
-1.25,-0.47,0.9,143.49,-244.93,27.28
-1.29,-0.63,1.29,148.19,-242.74,20.26
-1.31,-0.69,1.6,147.16,-212.46,27.22
-1.32,-0.7,1.71,148.13,-194.03,31.43
-1.3,-0.59,2.04,147.58,-163.21,33.33
-1.24,-0.51,2.14,143.19,-140.93,29.72
-1.08,-0.24,2.07,128.48,-87.77,24.11
-0.91,-0.37,2.06,127.26,-74.28,-21.48
-0.82,-0.73,2.15,127.87,-79.71,-52.98
-0.71,-1.38,2.25,109.07,-76.97,-76.84
-0.61,-1.45,2.27,88.26,-68.66,-57.92
-0.52,-1.46,2.29,48.95,-58.23,-49.13
-0.63,-1.47,2.63,51.76,-77.33,-31.56
-0.69,-1.46,2.84,50.11,-77.82,-22.89
-0.8,-1.42,2.93,15.81,-46.08,-10.38
-0.82,-1.37,2.92,-5.43,-27.89,-6.41
-0.87,-1.31,2.87,-34.97,9.28,-3.72
-0.99,-1.21,2.83,-38.09,47.67,-0.31
-1.04,-1.19,2.8,-36.93,69.64,1.59
-1.09,-1.2,2.54,-50.78,123.11,7.32
-1.08,-1.14,2.36,-62.32,149.6,12.94
-1.08,-0.99,1.95,-82.34,187.68,19.29
-1.08,-0.95,1.71,-89.54,198.06,14.83
-1.09,-0.95,1.61,-94.36,201.97,13.73
-1.12,-0.88,1.42,-111.45,215.7,18.37
-1.13,-0.8,1.32,-120.91,221.56,21.67
-1.11,-0.65,1.19,-132.69,229.25,24.72
-1.04,-0.45,0.97,-140.87,244.2,24.66
-1.01,-0.43,0.89,-142.03,246.22,18.8
-0.93,-0.4,0.74,-143.62,249.21,6.77
-0.9,-0.36,0.64,-143.43,250.98,3.11
-0.81,-0.3,0.49,-140.44,245.42,-3.42
-0.72,-0.34,0.41,-133.67,230.77,-11.29
-0.68,-0.36,0.35,-136.41,227.66,-12.02
-0.53,-0.32,0.2,-139.59,220.95,-10.5
-0.45,-0.31,0.14,-137.76,214.23,-9.22
-0.31,-0.2,0.02,-131.35,201.17,-3.42
-0.21,-0.13,-0.1,-124.15,183.17,-0.67
-0.14,-0.13,-0.17,-112.24,170.35,-1.34
-0.01,-0.08,-0.2,-79.16,137.15,-3.85
0.09,-0.09,-0.26,-65.12,123.96,-9.83
0.37,-0.16,-0.46,-48.83,97.96,-22.77
0.71,-0.13,-0.66,-39.73,69.58,-20.87
0.82,-0.1,-0.77,-38.88,58.72,-14.16
0.95,-0.03,-0.97,-24.11,42.54,0.85
1.0,0.1,-0.98,-6.35,26.12,9.22
0.95,0.2,-0.84,32.9,-7.32,7.26
0.94,0.15,-0.85,29.42,-21.42,-4.76
0.9,0.15,-0.83,18.92,-30.15,-9.28
0.75,0.15,-0.71,11.6,-48.71,-20.2
0.68,0.14,-0.64,8.48,-53.77,-26.0
0.56,0.15,-0.46,-0.73,-57.56,-34.24
0.51,0.08,-0.43,-9.09,-47.24,-42.66
0.4,0.01,-0.44,-10.8,-44.56,-44.19
0.36,-0.12,-0.48,-4.27,-48.77,-31.31
0.37,-0.15,-0.52,-0.79,-53.22,-16.91
0.34,-0.13,-0.59,6.59,-69.46,14.28
0.27,-0.15,-0.51,32.04,-99.98,30.4
0.14,-0.2,-0.44,47.0,-116.82,32.9
0.06,-0.27,-0.33,68.85,-140.75,39.0
0.03,-0.31,-0.28,78.37,-149.84,41.14
-0.05,-0.35,-0.22,87.83,-164.79,46.2
-0.11,-0.34,-0.11,101.93,-181.21,51.45
-0.27,-0.4,-0.03,112.06,-193.12,43.88
-0.43,-0.57,0.12,115.54,-202.82,44.07
-0.46,-0.61,0.13,114.01,-201.23,49.01
-0.69,-0.64,0.26,110.53,-207.52,63.78
-0.81,-0.66,0.44,116.15,-220.21,71.53
-1.0,-0.74,0.57,111.27,-223.69,77.45
-1.15,-0.48,1.02,108.83,-231.45,91.43
-1.24,-0.4,1.25,106.2,-228.58,85.45
-1.28,-0.36,1.5,91.43,-204.59,61.83
-1.25,-0.41,1.53,78.98,-186.83,32.1
-1.24,-0.72,1.51,72.69,-182.13,22.58
-1.1,-0.7,1.63,46.81,-181.95,33.69
-1.05,-0.49,1.65,34.61,-174.01,47.3
-1.06,0.03,1.71,29.17,-164.31,52.8
-1.1,0.13,1.85,46.14,-167.54,13.0
-1.09,-0.11,2.15,49.93,-163.64,-11.66
-1.03,-0.47,2.4,46.14,-148.86,-42.66
-0.95,-0.66,2.5,43.21,-139.77,-47.91
-0.77,-0.59,2.55,15.5,-102.23,-24.29
-0.75,-0.54,2.58,23.13,-74.65,-8.91
-0.72,-0.48,2.72,33.87,-62.5,-2.38
-0.71,-0.44,2.73,45.96,-34.61,1.71
-0.69,-0.51,2.73,44.56,-25.57,-3.05
-0.73,-0.66,2.77,26.55,-17.03,-9.03
-0.77,-0.65,2.77,-1.77,-4.88,-0.67
-0.9,-0.54,2.83,-12.88,2.38,3.72
-1.02,-0.43,2.89,-26.79,26.67,6.53
-1.09,-0.38,2.84,-37.05,48.03,3.05
-1.17,-0.28,2.6,-52.25,95.34,0.24
-1.2,-0.24,2.52,-53.34,134.46,-7.75
-1.23,-0.25,2.23,-51.21,157.17,-12.39
-1.17,-0.37,1.91,-44.74,189.27,-26.67
-1.13,-0.5,1.78,-45.53,199.65,-34.55
-1.06,-0.64,1.48,-63.05,225.04,-32.84
-1.02,-0.64,1.39,-77.88,233.34,-16.85
-0.96,-0.53,1.28,-86.3,233.52,-10.13
-0.93,-0.45,1.18,-104.0,225.46,-8.42
-0.9,-0.42,1.13,-109.5,220.64,-10.07
-0.87,-0.41,1.02,-123.96,215.82,-19.35
-0.87,-0.4,0.96,-124.57,212.83,-23.5
-0.89,-0.33,0.85,-120.85,209.05,-24.29
-0.85,-0.19,0.77,-105.9,203.8,-27.71
-0.82,-0.18,0.74,-100.65,203.55,-34.06
-0.76,-0.25,0.64,-104.55,213.81,-48.34
-0.73,-0.25,0.57,-122.62,224.79,-53.77
-0.64,-0.34,0.42,-114.93,227.54,-56.64
-0.51,-0.45,0.22,-127.26,228.52,-59.45
-0.48,-0.51,0.12,-131.41,224.12,-57.5
-0.32,-0.49,-0.11,-112.85,205.69,-41.26
-0.19,-0.44,-0.21,-102.78,178.04,-24.35
0.04,-0.32,-0.53,-84.59,161.07,-17.27
0.28,-0.19,-0.85,-35.64,108.34,-6.53
0.4,-0.18,-0.95,-9.89,77.03,-4.03
0.6,-0.11,-0.9,28.26,26.0,5.25
0.67,-0.03,-0.79,34.55,14.65,10.8
0.75,0.05,-0.74,31.62,24.66,6.47
0.8,-0.0,-0.97,29.85,37.23,-11.72
0.84,-0.04,-1.02,27.22,26.43,-19.1
0.83,0.0,-0.95,19.96,-5.68,-18.62
0.8,0.05,-0.92,17.27,-30.82,-11.6
0.76,0.19,-0.84,18.25,-26.73,-10.74
0.71,0.18,-0.82,30.64,-28.69,-23.25
0.65,0.08,-0.81,38.33,-33.45,-31.62
0.49,-0.17,-0.7,34.0,-52.92,-30.94
0.4,-0.22,-0.67,27.16,-62.99,-1.59
0.27,-0.13,-0.61,27.47,-87.77,14.71
0.17,0.01,-0.5,43.82,-113.77,31.56
0.11,0.06,-0.42,56.4,-124.39,33.75
0.04,-0.01,-0.33,82.28,-138.43,25.88
0.0,-0.1,-0.29,91.55,-144.41,20.45
-0.17,-0.25,-0.16,104.74,-158.81,21.0
-0.34,-0.39,0.01,112.79,-171.88,25.94
-0.41,-0.45,0.08,115.6,-178.04,30.15
-0.54,-0.46,0.28,125.43,-192.2,39.18
-0.56,-0.32,0.38,135.8,-194.27,31.62
-0.64,-0.29,0.56,143.86,-190.67,36.32
-0.69,-0.3,0.79,156.86,-184.33,17.21
-0.74,-0.38,0.91,160.34,-182.01,3.66
-0.86,-0.76,1.14,155.15,-178.41,-20.26
-0.86,-0.96,1.23,151.37,-176.7,-21.24
-0.74,-1.23,1.38,139.59,-173.83,-9.89
-0.74,-1.0,1.46,103.58,-163.45,29.72
-0.8,-0.74,1.49,89.72,-161.87,46.08
-0.85,-0.52,1.72,80.32,-177.92,33.87
-0.85,-0.47,1.86,69.52,-179.69,19.29
-0.77,-0.43,1.94,47.36,-160.1,-8.73
-0.7,-0.53,2.03,62.13,-145.81,-33.87
-0.67,-0.63,2.05,69.95,-136.6,-41.08
-0.58,-0.75,2.09,84.9,-120.12,-43.09
-0.57,-0.75,2.12,87.59,-111.57,-38.7
-0.55,-0.85,2.16,87.59,-97.23,-38.64
-0.51,-0.95,2.34,79.9,-93.81,-37.29
-0.5,-1.06,2.42,68.66,-89.17,-37.78
-0.49,-1.13,2.58,40.16,-75.13,-28.87
-0.49,-1.19,2.66,31.86,-68.3,-26.86
-0.55,-1.36,2.94,31.56,-54.26,-22.22
-0.66,-1.44,3.07,13.24,-17.7,-6.1
-0.69,-1.41,3.0,-6.9,9.95,4.21
-0.77,-1.33,2.87,-45.59,53.22,18.25
-0.8,-1.28,2.77,-63.42,74.22,22.28
-0.85,-1.2,2.57,-88.5,114.32,22.83
-0.92,-1.15,2.4,-91.8,146.79,26.31
-1.01,-1.1,2.31,-88.81,163.33,34.24
-1.11,-1.0,2.15,-74.46,191.77,47.79
-1.15,-1.02,2.08,-77.64,205.63,48.95
-1.17,-0.87,1.73,-112.0,243.16,52.19
-1.19,-0.74,1.42,-140.32,257.81,44.13
-1.2,-0.74,1.33,-149.29,257.69,38.7
-1.2,-0.7,1.18,-166.44,258.36,30.88
-1.19,-0.69,1.11,-178.83,260.56,26.61
-1.14,-0.57,0.88,-205.08,265.81,18.55
-1.1,-0.52,0.71,-213.62,258.54,4.82
-1.07,-0.47,0.65,-207.95,251.53,-1.59
-1.0,-0.44,0.58,-193.85,239.93,-14.59
-0.97,-0.45,0.51,-190.55,238.95,-20.69
-0.88,-0.43,0.29,-191.04,237.92,-28.81
-0.84,-0.46,0.13,-190.55,223.21,-37.9
-0.77,-0.45,0.04,-187.62,216.31,-38.21
-0.63,-0.3,-0.1,-172.49,195.37,-33.87
-0.53,-0.24,-0.15,-162.48,181.88,-36.07
-0.32,-0.23,-0.31,-144.53,155.7,-46.69
-0.15,-0.35,-0.57,-93.38,118.53,-54.63
0.24,-0.44,-0.66,-63.66,99.98,-52.61
0.66,-0.61,-1.0,-17.21,84.47,-39.73
0.82,-0.63,-1.09,-9.58,74.16,-29.24
0.93,-0.47,-1.13,-12.08,47.3,-5.8
0.95,-0.36,-1.32,-58.11,28.32,3.11
0.94,-0.1,-1.4,-69.4,10.31,4.03
1.01,0.1,-1.38,-58.84,-39.67,-6.29
1.04,0.13,-1.26,-37.6,-56.64,-17.76
0.99,0.2,-1.08,-3.72,-48.89,-29.66
0.94,0.21,-0.99,16.85,-22.89,-38.64
0.82,0.11,-0.98,19.1,-14.28,-42.85
0.65,-0.01,-0.95,15.14,-19.29,-39.18
0.6,-0.09,-0.95,11.54,-30.76,-35.03
0.51,-0.27,-0.89,6.04,-62.87,-14.59
0.46,-0.27,-0.77,7.69,-90.64,20.51
0.3,-0.17,-0.66,14.16,-102.72,34.79
0.17,-0.05,-0.53,33.33,-118.35,53.41
0.12,-0.02,-0.54,41.99,-121.34,57.31
0.04,-0.08,-0.57,59.88,-136.84,54.44
-0.0,-0.11,-0.5,76.6,-169.07,45.78
-0.09,-0.21,-0.26,85.14,-183.35,40.77
-0.19,-0.35,-0.08,94.48,-197.39,35.71
-0.28,-0.36,-0.02,93.63,-198.3,40.47
-0.42,-0.34,0.07,100.65,-197.33,52.0
-0.49,-0.31,0.08,119.45,-198.3,58.9
-0.59,-0.21,0.13,130.43,-205.81,54.87
-0.76,-0.47,0.41,138.37,-230.29,30.64
-0.89,-0.6,0.6,137.82,-242.68,25.02
-1.09,-0.83,1.0,119.02,-259.52,22.52
-1.12,-0.91,1.22,83.92,-254.52,41.2
-1.12,-0.8,1.41,69.15,-239.2,59.88
-1.13,-0.45,1.34,52.61,-209.41,87.71
-1.16,-0.31,1.37,65.31,-206.36,89.6
-1.2,-0.23,1.59,101.93,-207.82,73.67
-1.17,-0.24,1.65,118.23,-189.27,55.05
-1.14,-0.26,1.69,117.19,-180.66,45.29
-1.1,-0.32,1.7,114.75,-173.16,24.23
-1.07,-0.33,1.77,120.12,-178.47,14.34
-1.06,-0.61,2.15,140.81,-204.04,-13.67
-1.07,-0.92,2.4,133.42,-211.98,-26.49
-1.09,-1.18,2.72,104.86,-196.04,-11.05
-1.09,-0.77,2.57,32.1,-146.67,34.24
-1.11,-0.5,2.52,8.24,-134.03,47.24
-1.1,-0.17,2.53,-13.12,-124.94,37.29
-1.11,-0.15,2.55,-14.53,-120.12,10.93
-1.15,-0.17,2.72,-13.31,-115.17,1.16
-1.22,-0.2,2.87,-25.21,-89.9,-10.56
-1.26,-0.2,2.91,-31.56,-70.74,-13.61
-1.31,-0.22,2.86,-33.87,-17.4,-18.92
-1.33,-0.24,2.7,-33.94,47.61,-22.4
-1.29,-0.22,2.27,-28.63,74.58,-22.58
-1.22,-0.25,1.9,-18.68,108.34,-24.9
-1.2,-0.28,1.75,-13.73,117.19,-26.0
-1.15,-0.39,1.69,-8.79,120.67,-27.4
-1.15,-0.45,1.68,-15.44,131.77,-28.69
-1.18,-0.58,1.61,-37.66,136.47,-28.99
-1.18,-0.68,1.52,-55.97,140.26,-20.02
-1.15,-0.58,1.45,-63.35,145.02,-11.05
-1.13,-0.39,1.24,-66.71,159.12,-2.2
-1.16,-0.34,1.16,-60.97,158.39,-6.84
-1.16,-0.31,1.06,-50.9,154.97,-9.64
-1.13,-0.25,0.92,-54.99,153.99,-10.99
-1.09,-0.23,0.85,-63.66,151.49,-14.95
-0.99,-0.24,0.73,-84.11,144.71,-33.69
-0.99,-0.22,0.6,-93.51,145.08,-51.09
-0.92,-0.21,0.46,-89.84,131.23,-60.85
-0.85,-0.11,0.51,-65.12,121.77,-67.57
-0.81,-0.07,0.49,-59.2,126.53,-71.47
-0.69,-0.09,0.39,-46.14,136.6,-83.37
-0.6,-0.14,0.26,-42.24,141.17,-95.21
-0.44,-0.25,0.1,-40.34,132.32,-97.53
-0.28,-0.34,0.04,-39.61,117.92,-95.83
-0.11,-0.31,-0.13,-49.74,118.16,-93.87
0.35,-0.3,-0.54,-47.36,110.29,-93.87
0.49,-0.36,-0.57,-36.25,90.76,-84.53
0.66,-0.37,-0.44,-14.34,45.17,-72.2
0.74,-0.39,-0.4,-4.58,23.93,-45.72
0.75,-0.37,-0.38,1.4,15.44,-33.33
0.77,-0.3,-0.32,4.33,1.4,-14.89
0.76,-0.24,-0.3,1.28,-1.16,-8.61
0.75,-0.14,-0.23,5.8,-6.77,-0.61
0.64,-0.08,-0.22,12.82,-9.52,6.04
0.59,-0.02,-0.2,13.18,-11.9,7.45
0.53,-0.02,-0.16,5.31,-18.68,-3.48
0.52,-0.04,-0.16,-3.85,-19.41,-9.95
0.49,-0.08,-0.21,-17.27,-23.5,-15.93
0.5,-0.11,-0.24,-6.59,-39.12,-1.95
0.51,-0.11,-0.26,1.65,-45.17,9.52
0.39,-0.1,-0.25,20.02,-59.2,29.72
0.32,-0.11,-0.2,29.24,-67.38,35.77
0.23,-0.14,-0.16,27.71,-74.52,39.0
0.13,-0.13,-0.17,19.53,-83.01,39.79
0.09,-0.12,-0.2,17.09,-86.98,40.65
-0.05,-0.13,-0.06,34.18,-101.01,47.3
-0.13,-0.15,0.05,49.56,-104.86,52.67
-0.27,-0.1,0.19,71.78,-96.56,63.96
-0.39,-0.16,0.36,70.56,-88.07,57.25
-0.47,-0.19,0.49,61.04,-82.4,51.51
-0.56,-0.27,0.67,30.15,-55.85,38.02
-0.56,-0.31,0.64,10.01,-37.72,31.92
-0.66,-0.36,0.59,-15.14,-16.11,23.62
-0.76,-0.19,0.65,-8.85,-21.18,25.51
-0.78,-0.14,0.71,-3.11,-33.02,23.74
-0.89,-0.34,0.77,-23.62,-55.42,10.5
-0.89,-0.4,0.75,-29.48,-70.62,9.7
-0.78,-0.58,1.09,-9.77,-133.24,20.63
-0.81,-0.32,1.38,7.14,-139.89,64.39
-0.86,-0.07,1.42,21.12,-129.33,83.37
-0.86,0.04,1.63,59.02,-134.34,77.15
-0.89,-0.1,1.8,75.99,-141.97,61.89
-0.87,-0.5,1.89,88.68,-141.05,38.45
-0.82,-0.52,1.93,78.43,-138.12,50.05
-0.78,-0.41,2.01,75.07,-138.73,59.39
-0.85,-0.18,2.28,83.19,-135.44,65.43
-0.88,-0.24,2.46,91.06,-133.24,55.91
-0.92,-0.43,2.79,98.02,-124.82,35.95
-0.91,-0.65,3.01,63.29,-108.58,26.86
-0.9,-0.59,3.01,34.73,-92.59,31.98
-0.91,-0.33,2.88,-16.85,-55.79,38.51
-0.96,-0.22,2.88,-24.05,-44.8,36.87
-1.12,-0.22,2.98,-10.99,-26.18,24.78
-1.18,-0.21,2.92,-13.61,10.56,20.02
-1.23,-0.14,2.79,-28.87,33.26,17.33
-1.25,-0.07,2.51,-56.21,71.11,2.5
-1.26,-0.05,2.39,-60.49,85.75,-6.16
-1.28,-0.16,2.19,-48.4,112.92,-25.88
-1.25,-0.31,1.96,-30.4,144.47,-35.58
-1.17,-0.41,1.83,-27.34,161.19,-38.45
-1.15,-0.59,1.53,-33.26,189.82,-34.79
-1.13,-0.65,1.39,-40.28,196.29,-27.95
-1.07,-0.58,1.19,-64.76,198.97,-8.12
-1.05,-0.46,1.09,-80.87,195.86,4.82
-1.02,-0.29,1.06,-87.59,196.04,2.81
-1.01,-0.19,0.92,-99.67,201.23,-6.59
-0.99,-0.16,0.86,-99.85,202.09,-11.6
-0.96,-0.15,0.78,-90.58,201.84,-18.8
-0.92,-0.13,0.64,-76.35,202.21,-21.12
-0.8,-0.12,0.53,-78.43,198.55,-24.9
-0.71,-0.25,0.47,-94.6,180.18,-33.81
-0.67,-0.23,0.45,-103.64,174.19,-32.65
-0.63,-0.16,0.29,-129.64,172.85,-33.87
-0.58,-0.12,0.22,-131.04,157.84,-40.83
-0.42,-0.01,0.08,-123.6,144.35,-47.42
-0.21,-0.16,-0.02,-124.08,113.22,-66.77
-0.12,-0.18,-0.11,-126.34,101.44,-68.54
0.01,-0.19,-0.27,-122.99,79.65,-70.13
0.07,-0.18,-0.25,-71.35,44.62,-72.63
0.2,-0.27,-0.13,-47.97,35.34,-73.55
0.33,-0.34,-0.25,-42.66,46.81,-65.98
0.43,-0.33,-0.4,-51.94,55.11,-59.75
0.58,-0.25,-0.68,-63.48,54.08,-50.66
0.66,-0.2,-0.83,-60.0,32.53,-49.87
0.82,-0.22,-1.12,-57.68,15.81,-48.77
0.86,-0.25,-0.96,-22.16,-33.94,-40.95
0.86,-0.26,-0.79,-2.38,-55.97,-36.68
0.83,-0.31,-0.6,3.42,-66.28,-25.82
0.8,-0.31,-0.58,1.46,-58.47,-12.94
0.61,-0.31,-0.5,4.27,-57.62,-4.46
0.44,-0.22,-0.33,22.89,-65.98,16.6
0.37,-0.19,-0.25,30.4,-69.7,25.15
0.28,-0.2,-0.26,39.67,-72.57,37.05
0.25,-0.25,-0.31,37.6,-84.17,39.79
0.12,-0.29,-0.22,35.03,-94.85,42.6
-0.04,-0.28,-0.12,29.3,-107.48,50.42
-0.1,-0.25,-0.11,28.63,-110.11,57.98
-0.18,-0.24,0.02,40.47,-124.39,68.97
-0.23,-0.24,0.1,50.17,-132.45,76.48
-0.36,-0.21,0.25,52.06,-132.81,78.43
-0.47,-0.19,0.4,50.42,-135.93,77.27
-0.48,-0.15,0.4,40.47,-131.96,76.9
-0.55,-0.21,0.3,24.11,-130.8,64.33
-0.61,-0.3,0.36,42.18,-160.83,52.92
-0.75,-0.36,0.72,43.88,-176.15,54.75
-0.92,-0.34,1.1,38.09,-175.42,68.24
-0.95,-0.24,1.16,35.28,-163.7,79.65
-1.0,-0.08,1.38,36.74,-152.65,88.44
-1.01,-0.13,1.51,40.95,-144.78,83.56
-1.01,-0.16,1.69,36.01,-130.55,90.27
-1.06,-0.0,1.63,35.83,-88.5,106.93
-1.1,0.09,1.52,41.38,-76.72,110.66
-1.06,0.23,1.68,63.54,-108.95,109.92
-1.04,0.26,1.9,72.39,-134.4,92.71
-1.14,0.16,2.09,65.25,-136.54,79.1
-1.1,0.16,2.31,79.16,-150.15,58.78
-1.1,0.15,2.41,74.71,-149.96,55.18
-1.06,0.33,2.52,57.74,-132.87,56.03
-1.05,0.43,2.59,53.89,-105.41,40.16
-1.01,0.34,2.71,52.67,-87.22,25.45
-1.02,0.22,2.76,42.11,-46.75,9.4
-0.99,0.21,2.7,27.71,-23.74,6.1
-0.97,0.24,2.61,7.26,4.76,3.17
-0.99,0.21,2.66,3.54,27.16,-5.37
-1.04,0.23,2.7,-7.14,33.69,-7.57
-1.03,0.28,2.54,-23.25,67.02,-20.08
-1.06,0.26,2.41,-27.4,80.08,-30.64
-1.05,0.1,2.23,-24.66,92.71,-53.89
-1.03,-0.01,2.15,-21.3,100.28,-67.02
-0.97,-0.17,1.95,-13.73,123.47,-67.75
-0.87,-0.4,1.77,-8.79,140.01,-65.86
-0.84,-0.52,1.76,-14.4,145.94,-60.79
-0.81,-0.68,1.67,-49.26,169.8,-44.13
-0.84,-0.61,1.57,-66.89,179.5,-16.97
-0.89,-0.4,1.47,-87.95,180.36,-4.46
-0.94,-0.09,1.34,-87.65,183.53,14.4
-0.97,0.03,1.25,-83.68,185.3,15.75
-0.94,0.13,1.13,-78.19,186.04,1.4
-0.95,0.13,1.05,-80.75,186.83,-24.6
-0.92,0.06,0.73,-90.76,187.01,-29.85
-0.85,0.03,0.55,-98.33,169.43,-39.73
-0.82,0.03,0.52,-103.52,159.06,-42.91
-0.75,0.07,0.4,-111.45,149.23,-49.38
-0.63,0.06,0.29,-109.62,145.63,-55.24
-0.42,-0.04,-0.01,-102.17,138.73,-64.76
-0.24,-0.13,-0.34,-86.55,116.52,-64.27
-0.12,-0.22,-0.38,-83.13,91.8,-63.29
0.07,-0.34,-0.33,-72.39,42.85,-54.14
0.14,-0.37,-0.34,-69.64,27.65,-47.06
0.27,-0.32,-0.35,-51.39,10.07,-33.02
0.34,-0.22,-0.39,-17.4,2.69,-20.39
0.37,-0.18,-0.43,0.55,0.0,-14.83
0.45,-0.12,-0.5,28.99,-8.24,-5.31
0.48,-0.15,-0.5,32.59,-13.61,-5.0
0.53,-0.13,-0.51,26.0,-18.49,-2.5
0.54,-0.07,-0.53,10.07,-22.95,-5.86
0.51,-0.03,-0.5,8.79,-28.69,-7.87
0.45,-0.06,-0.35,24.54,-44.25,-13.55
0.44,-0.1,-0.28,32.59,-47.61,-15.87
0.39,-0.1,-0.28,31.68,-38.51,-18.86
0.37,-0.2,-0.38,26.37,-36.13,-26.12
0.35,-0.28,-0.41,26.37,-41.56,-24.66
0.26,-0.39,-0.44,27.95,-56.88,-6.71
0.21,-0.39,-0.39,33.26,-70.8,5.98
0.05,-0.35,-0.2,32.41,-99.49,30.76
-0.12,-0.28,-0.11,20.26,-114.07,45.84
-0.19,-0.22,-0.07,10.38,-119.14,50.48
-0.31,-0.1,0.02,2.69,-127.38,56.27
-0.34,0.0,0.09,14.53,-131.53,58.23
-0.53,0.11,0.22,54.81,-132.57,52.86
-0.55,-0.09,0.39,89.78,-139.22,29.85
-0.64,-0.28,0.56,87.95,-147.46,17.4
-0.77,-0.53,0.79,65.73,-146.3,10.44
-0.81,-0.51,0.91,52.49,-141.3,20.2
-0.78,-0.32,1.14,44.13,-128.6,49.87
-0.79,-0.12,1.39,37.78,-102.42,69.95
-0.88,-0.09,1.42,32.41,-85.57,69.58
-0.91,-0.06,1.49,13.98,-65.86,63.29
-0.9,-0.0,1.53,11.84,-61.95,60.12
-0.84,-0.03,1.6,8.79,-57.92,50.84
-0.84,-0.08,1.58,6.53,-65.49,59.88
-0.81,-0.1,1.65,4.88,-84.11,71.66
-0.88,0.14,1.76,1.89,-116.52,103.15
-0.91,0.23,1.84,4.58,-136.29,104.43
-0.94,0.29,2.21,29.97,-173.22,83.01
-0.9,0.25,2.35,30.58,-162.41,64.09
-0.86,0.23,2.36,24.66,-146.24,58.23
-0.89,0.24,2.42,34.36,-111.94,53.16
-0.92,0.25,2.56,46.33,-99.43,51.57
-0.97,0.44,2.75,52.25,-59.02,52.31
-0.97,0.49,2.72,19.53,-12.94,35.03
-1.01,0.54,2.67,2.26,6.1,23.8
-1.05,0.6,2.58,-15.69,39.43,4.15
-1.04,0.63,2.52,-15.08,52.8,-6.23
-1.05,0.58,2.34,-4.33,76.78,-34.06
-1.03,0.46,2.18,-3.05,88.99,-61.46
-1.01,0.26,2.04,-7.75,93.69,-67.32
-0.99,0.17,1.8,-16.97,100.83,-71.72
-0.97,0.1,1.72,-15.81,98.57,-75.5
-0.97,-0.05,1.69,-4.82,95.95,-79.53
-0.96,-0.1,1.64,-6.9,112.85,-79.35
-0.92,-0.23,1.45,-15.2,122.68,-77.39
-0.86,-0.29,1.28,-35.95,135.62,-65.12
-0.81,-0.28,1.2,-46.75,140.69,-55.6
-0.75,-0.19,1.15,-55.24,145.39,-36.62
-0.72,-0.15,1.19,-56.27,150.57,-29.72
-0.68,-0.18,1.18,-61.58,156.86,-32.96
-0.66,-0.3,1.16,-69.46,161.44,-37.84
-0.65,-0.3,1.13,-72.39,164.25,-33.33
-0.62,-0.2,1.0,-85.02,169.25,-17.4
-0.63,-0.1,0.95,-86.91,164.61,-4.15
-0.59,0.05,0.84,-83.13,162.17,-4.21
-0.52,0.11,0.68,-71.29,158.26,-13.92
-0.5,0.11,0.62,-63.48,152.95,-20.51
-0.45,0.08,0.56,-51.94,138.43,-30.15
-0.39,0.06,0.5,-50.42,123.96,-31.07
-0.32,0.1,0.46,-51.88,115.48,-30.33
-0.29,0.09,0.38,-56.7,107.79,-34.36
-0.27,0.07,0.29,-58.47,107.6,-37.84
-0.19,0.06,0.05,-55.18,107.24,-41.38
-0.15,0.02,-0.09,-45.72,93.08,-44.56
-0.01,-0.0,-0.32,-37.72,79.28,-42.18
0.12,0.05,-0.51,-24.17,44.86,-37.11
0.22,0.08,-0.56,-13.18,27.53,-36.38
0.39,0.13,-0.5,14.04,-0.12,-38.21
0.44,0.14,-0.46,25.45,2.5,-48.1
0.5,0.07,-0.48,22.83,7.69,-54.99
0.52,-0.02,-0.5,24.78,6.16,-64.82
0.53,-0.06,-0.5,26.55,0.67,-66.04
0.55,-0.16,-0.44,38.33,-14.77,-60.97
0.54,-0.2,-0.44,41.14,-24.35,-52.43
0.54,-0.25,-0.36,26.67,-26.37,-47.36
0.5,-0.25,-0.41,-7.02,-23.56,-32.35
0.45,-0.21,-0.4,-18.37,-26.06,-19.53
0.36,-0.12,-0.37,-22.34,-37.17,4.15
0.33,-0.1,-0.36,-19.04,-48.03,19.78
0.24,-0.06,-0.3,-6.77,-55.18,24.23
0.13,-0.1,-0.06,13.31,-73.49,22.16
0.06,-0.19,0.05,17.03,-79.16,19.65
0.01,-0.24,0.14,18.07,-80.93,26.06
0.01,-0.25,0.15,19.47,-90.03,37.72
-0.03,-0.24,0.19,12.27,-93.99,46.14
-0.18,-0.19,0.35,10.86,-106.2,57.74
-0.26,-0.21,0.44,13.43,-111.63,60.18
-0.32,-0.07,0.54,16.05,-114.2,67.14
-0.37,0.05,0.6,19.29,-132.93,59.94
-0.47,0.12,0.81,40.16,-135.19,47.3
-0.58,0.11,1.19,53.22,-148.19,27.16
-0.63,0.09,1.41,54.02,-144.04,21.12
-0.64,0.12,1.47,32.23,-114.26,13.43
-0.63,0.22,1.4,23.5,-99.79,16.11
-0.61,0.25,1.42,32.41,-96.31,15.2
-0.67,0.32,1.5,32.53,-94.91,22.52
-0.68,0.29,1.48,24.17,-91.98,24.78
-0.62,0.27,1.39,14.77,-98.63,34.3
-0.58,0.25,1.45,19.96,-111.51,35.34
-0.51,0.14,1.67,45.96,-129.82,32.96
-0.54,0.18,1.67,67.99,-114.07,31.8
-0.57,0.15,1.73,74.1,-109.74,28.32
-0.56,0.01,1.79,68.3,-93.69,24.41
-0.54,-0.03,1.7,60.12,-78.61,42.72
-0.47,0.06,1.68,74.89,-77.82,35.46
-0.42,0.02,2.13,94.36,-94.73,30.15
-0.41,-0.03,2.29,94.3,-88.93,26.0
-0.42,-0.17,2.43,73.73,-69.52,18.37
-0.4,-0.26,2.49,61.95,-64.82,17.52
-0.41,-0.16,2.57,43.33,-52.55,34.12
-0.52,0.01,2.85,39.18,-45.84,45.17
-0.59,0.1,2.99,39.37,-35.22,45.78
-0.64,0.22,2.92,23.13,12.02,34.42
-0.66,0.23,2.75,8.79,37.6,23.62
-0.66,0.17,2.45,1.4,69.34,-0.85
-0.7,-0.05,2.46,22.46,76.17,-22.77
-0.73,-0.23,2.53,31.56,82.21,-31.13
-0.75,-0.47,2.32,14.53,130.31,-28.93
-0.76,-0.5,2.08,-7.75,156.25,-20.02
-0.73,-0.47,1.74,-51.51,173.52,-0.73
-0.75,-0.28,1.62,-80.99,169.13,11.96
-0.77,-0.21,1.63,-84.9,164.61,11.9
-0.78,-0.24,1.53,-99.3,171.08,1.1
-0.77,-0.27,1.41,-108.58,179.87,-2.44
-0.75,-0.17,1.09,-118.35,192.75,0.55
-0.73,-0.1,0.95,-122.56,181.64,1.22
-0.7,-0.05,0.88,-120.18,175.35,0.85
-0.66,-0.01,0.76,-116.88,164.55,-4.88
-0.64,-0.0,0.7,-116.21,161.99,-8.91
-0.62,0.01,0.56,-117.74,162.23,-12.45
-0.55,0.06,0.39,-117.86,163.39,-9.16
-0.51,0.08,0.3,-119.57,161.8,-8.36
-0.41,0.11,0.16,-115.97,152.4,-10.99
-0.38,0.12,0.13,-113.4,143.19,-12.57
-0.29,0.08,0.1,-100.22,120.18,-15.26
-0.22,0.11,0.04,-85.69,101.01,-12.45
-0.16,0.14,-0.06,-71.72,91.19,-12.7
-0.03,0.11,-0.29,-45.59,67.99,-20.87
0.04,0.07,-0.42,-33.63,55.18,-24.9
0.21,0.04,-0.64,-8.79,22.09,-27.83
0.41,-0.07,-0.75,5.68,1.89,-31.31
0.48,-0.12,-0.74,12.76,-3.97,-32.41
0.57,-0.16,-0.61,22.71,-21.85,-35.46
0.59,-0.17,-0.55,22.58,-27.4,-37.6
0.58,-0.2,-0.5,16.6,-31.07,-36.07
0.57,-0.15,-0.44,18.25,-32.1,-27.71
0.53,-0.14,-0.43,15.14,-30.21,-25.02
0.47,-0.11,-0.42,0.79,-28.44,-17.15
0.43,-0.09,-0.42,-1.71,-28.5,-12.21
0.34,-0.04,-0.42,1.4,-33.81,1.16
0.29,-0.01,-0.33,14.89,-49.38,11.84
0.19,-0.02,-0.26,19.65,-57.31,15.32
0.13,-0.03,-0.11,28.93,-71.96,20.08
0.1,-0.07,-0.05,35.4,-79.41,20.51
0.02,-0.13,0.07,43.7,-91.06,26.67
-0.04,-0.16,0.12,34.24,-94.06,35.4
-0.15,-0.14,0.15,30.52,-97.78,40.83
-0.29,-0.06,0.25,37.05,-104.68,51.09
-0.36,-0.03,0.33,52.61,-109.01,52.49
-0.44,-0.01,0.55,77.45,-115.11,45.53
-0.45,-0.0,0.62,88.38,-114.07,32.9
-0.43,-0.08,0.68,92.77,-121.58,24.11
-0.44,-0.24,0.86,104.37,-145.75,15.26
-0.48,-0.32,1.02,104.55,-155.4,15.87
-0.57,-0.52,1.21,83.62,-148.25,27.89
-0.61,-0.53,1.14,68.97,-130.43,63.96
-0.68,-0.27,1.12,63.84,-128.72,82.82
-0.77,0.05,1.15,62.56,-138.55,97.66
-0.82,0.12,1.25,60.0,-146.18,92.59
-0.91,0.05,1.47,63.23,-158.94,71.41
-0.92,0.02,1.55,73.61,-164.37,64.15
-0.81,0.06,1.71,80.32,-168.33,61.58
-0.75,0.12,1.9,94.48,-174.07,51.27
-0.74,0.06,2.05,101.2,-174.44,41.81
-0.72,-0.01,2.32,124.39,-160.89,26.49
-0.7,-0.1,2.48,133.42,-136.78,16.3
-0.65,-0.26,2.66,133.61,-120.91,15.26
-0.62,-0.29,2.82,121.03,-101.32,16.78
-0.65,-0.36,2.99,110.41,-98.75,13.18
-0.69,-0.48,3.26,71.41,-76.48,9.89
-0.73,-0.47,3.23,14.53,-26.06,16.85
-0.84,-0.3,3.0,-3.72,-6.53,21.48
-0.87,-0.04,2.73,-28.69,27.53,18.13
-0.88,-0.01,2.57,-36.68,44.07,5.92
-0.88,-0.15,2.35,-26.31,67.5,-24.66
-0.87,-0.32,2.29,-10.68,85.75,-46.69
-0.84,-0.56,2.13,-13.55,97.84,-46.14
-0.86,-0.69,1.99,-34.42,116.46,-33.87
-0.88,-0.66,1.9,-53.22,127.62,-23.07
-0.92,-0.49,1.74,-82.95,144.96,-5.25
-0.93,-0.43,1.72,-100.52,157.35,-5.49
-0.92,-0.36,1.64,-111.39,170.59,-8.79
-0.87,-0.38,1.43,-131.65,195.43,-19.29
-0.84,-0.4,1.3,-136.11,201.17,-22.64
-0.79,-0.44,1.14,-133.0,198.73,-22.83
-0.75,-0.46,1.1,-125.0,188.05,-14.65
-0.7,-0.33,1.0,-121.15,184.69,-8.91
-0.69,-0.2,0.97,-117.07,173.46,-7.57
-0.67,-0.16,0.93,-120.24,171.63,-10.07
-0.67,-0.08,0.73,-128.78,172.67,-16.66
-0.68,-0.04,0.64,-129.21,165.71,-23.07
-0.63,0.03,0.5,-129.82,159.67,-27.95
-0.58,-0.01,0.35,-140.32,150.45,-39.43
-0.55,-0.02,0.28,-142.21,143.74,-42.79
-0.46,0.03,0.16,-135.8,123.72,-44.31
-0.43,0.06,0.11,-132.39,106.26,-45.59
-0.28,0.15,-0.1,-121.28,102.72,-48.22
-0.06,0.17,-0.52,-90.88,90.03,-61.77
0.04,0.14,-0.69,-69.34,75.44,-70.8
0.24,-0.05,-0.85,-23.56,35.4,-80.63
0.35,-0.17,-0.8,4.58,-12.7,-70.01
0.48,-0.31,-0.51,48.83,-26.43,-56.27
0.54,-0.24,-0.35,56.88,-17.88,-27.04
0.56,-0.14,-0.37,48.95,-3.72,-19.1
0.57,-0.03,-0.47,35.1,6.35,-21.18
0.56,-0.03,-0.51,37.6,-14.95,-28.87
0.58,-0.0,-0.42,52.86,-20.87,-28.81
0.55,0.03,-0.27,56.58,-26.92,-28.93
0.54,0.02,-0.24,47.18,-25.09,-29.54
0.5,-0.06,-0.16,23.93,-21.24,-30.58
0.46,-0.11,-0.15,12.08,-19.53,-19.65
0.4,-0.16,-0.14,2.81,-25.45,-7.63
0.32,-0.08,-0.07,5.0,-39.49,18.62
0.25,-0.01,-0.05,6.65,-43.95,27.77
0.15,0.08,-0.01,13.92,-52.49,34.73
0.11,0.07,0.02,13.67,-57.07,31.43
0.04,0.06,0.03,13.85,-61.52,31.43
-0.02,0.03,0.11,15.81,-72.81,34.97
-0.09,0.01,0.18,20.39,-76.84,38.88
-0.21,-0.03,0.27,28.02,-79.35,44.07
-0.25,-0.04,0.29,31.62,-83.56,45.04
-0.27,-0.1,0.38,33.39,-99.49,42.72
-0.31,-0.14,0.41,31.56,-113.46,46.63
-0.34,-0.12,0.46,34.55,-119.81,52.61
-0.42,-0.14,0.61,55.73,-132.57,57.31
-0.47,-0.24,0.75,64.51,-141.97,53.83
-0.54,-0.51,1.06,68.73,-156.01,51.09
-0.51,-0.55,1.15,51.94,-145.14,76.6
-0.5,-0.38,1.05,36.19,-131.35,99.67
-0.65,-0.12,0.99,31.56,-129.15,122.19
-0.74,-0.12,1.12,47.06,-141.97,117.68
-0.86,-0.16,1.44,82.4,-161.74,102.97
-0.86,-0.09,1.59,90.21,-154.24,99.55
-0.83,-0.03,1.6,93.51,-149.23,98.75
-0.79,0.07,1.72,104.55,-149.9,87.22
-0.79,0.05,1.82,110.72,-150.57,75.13
-0.8,-0.11,2.05,126.59,-151.55,46.75
-0.74,-0.22,2.32,123.11,-148.25,36.01
-0.69,-0.16,2.33,107.67,-139.16,36.44
-0.68,-0.03,2.41,74.1,-128.36,31.98
-0.69,-0.07,2.55,68.73,-127.75,22.89
-0.73,-0.23,2.8,61.4,-109.86,7.26
-0.74,-0.3,2.86,44.86,-74.04,6.41
-0.75,-0.35,2.82,32.47,-55.79,8.06
-0.8,-0.36,2.63,9.22,-22.4,17.4
-0.82,-0.28,2.55,-2.01,-9.46,24.66
-0.94,-0.1,2.58,-23.19,5.8,28.38
-1.05,0.09,2.54,-56.34,38.15,21.48
-1.08,0.19,2.43,-70.98,59.63,15.01
-1.13,0.29,2.22,-83.86,90.39,-5.0
-1.13,0.3,2.11,-85.02,103.33,-16.24
-1.11,0.23,1.83,-87.65,126.83,-39.67
-1.07,0.18,1.66,-81.18,137.51,-53.71
-1.05,0.13,1.61,-80.63,141.97,-60.12
-1.01,0.08,1.44,-89.36,158.63,-68.12
-1.0,0.06,1.35,-94.42,165.59,-71.23
-0.92,-0.01,1.17,-111.82,173.71,-80.44
-0.83,-0.04,1.04,-128.48,172.79,-87.34
-0.79,-0.03,1.02,-132.32,167.36,-88.81
-0.72,-0.04,1.04,-140.99,155.94,-89.84
-0.69,-0.07,1.02,-148.44,154.6,-91.37
-0.68,-0.15,0.86,-156.8,156.37,-93.14
-0.65,-0.16,0.65,-141.97,152.28,-93.69
-0.51,-0.17,0.59,-128.97,146.3,-94.6
-0.35,-0.14,0.48,-98.57,135.19,-93.14
-0.29,-0.15,0.39,-88.5,130.86,-93.38
-0.16,-0.27,0.22,-69.15,118.53,-94.6
-0.1,-0.31,0.17,-41.75,94.18,-82.7
0.05,-0.33,0.14,-34.73,85.69,-75.87
0.16,-0.42,-0.01,-28.69,78.12,-58.84
0.21,-0.41,-0.2,-25.88,79.59,-46.08
0.36,-0.39,-0.54,-8.24,62.62,-24.23
0.42,-0.28,-0.53,10.8,15.62,5.0
0.48,-0.17,-0.5,13.61,-0.85,20.81
0.43,0.02,-0.5,7.81,-19.71,40.34
0.37,0.09,-0.53,8.61,-28.44,43.58
0.27,0.18,-0.46,23.86,-56.09,41.26
0.23,0.2,-0.38,35.34,-70.31,36.74
0.2,0.31,-0.4,43.15,-71.53,35.52
0.18,0.33,-0.34,69.82,-81.3,26.06
0.16,0.3,-0.28,83.07,-85.94,19.23
0.18,0.2,-0.22,93.2,-86.3,6.16
0.17,0.11,-0.19,88.07,-86.61,-5.43
0.12,0.03,-0.13,86.67,-89.6,-7.08
0.04,0.01,-0.03,79.28,-88.99,-8.36
0.0,0.01,-0.02,79.35,-87.83,-8.06
-0.06,-0.02,0.01,90.39,-93.81,-6.53
-0.11,-0.1,0.07,91.92,-111.15,-10.74
-0.22,-0.35,0.16,81.36,-116.52,-9.95
-0.35,-0.47,0.15,57.5,-122.07,2.44
-0.41,-0.48,0.18,48.03,-127.69,11.66
-0.54,-0.37,0.3,46.02,-141.78,33.33
-0.6,-0.28,0.4,44.68,-148.62,45.78
-0.72,-0.18,0.57,44.49,-146.42,44.86
-0.81,-0.25,0.68,52.86,-139.4,38.09
-0.86,-0.3,0.8,57.07,-137.88,35.4
-0.95,-0.43,0.98,66.59,-116.82,35.77
-0.99,-0.51,1.01,74.83,-94.6,47.06
-1.02,-0.61,1.18,76.78,-90.7,57.68
-0.99,-0.57,1.27,52.06,-88.38,80.08
-1.03,-0.53,1.34,25.45,-96.86,90.09
-1.13,-0.3,1.51,-17.27,-121.46,119.63
-1.12,-0.13,1.58,-61.4,-138.12,141.66
-1.08,0.38,1.68,-69.52,-147.89,142.33
-1.07,0.6,2.05,-41.87,-171.33,104.31
-1.06,0.43,2.32,-20.39,-180.6,76.17
-1.05,0.1,2.77,48.89,-177.25,45.9
-1.06,0.05,2.87,82.76,-130.68,49.01
-1.1,0.21,2.76,77.39,-103.64,54.2
-1.17,0.39,2.73,61.95,-62.93,48.71
-1.18,0.43,2.73,51.51,-41.08,38.15
-1.18,0.42,2.54,26.49,9.64,8.3
-1.17,0.4,2.41,13.92,43.7,-19.84
-1.16,0.24,2.29,12.39,52.49,-32.78
-1.14,0.08,2.17,6.96,72.81,-46.63
-1.13,0.04,2.1,-0.06,85.14,-49.44
-1.11,-0.02,2.01,-12.39,104.74,-54.44
-1.1,-0.08,1.96,-17.82,119.32,-61.77
-1.09,-0.2,1.86,-28.08,125.24,-63.35
-1.05,-0.24,1.67,-35.03,135.5,-66.65
-1.02,-0.26,1.61,-35.89,134.83,-69.58
-0.96,-0.4,1.53,-42.36,131.47,-76.78
-0.96,-0.47,1.47,-50.96,135.56,-71.59
-0.96,-0.48,1.32,-65.92,138.73,-63.42
-0.96,-0.39,1.2,-67.75,142.46,-44.31
-0.92,-0.34,1.14,-67.57,143.92,-37.72
-0.83,-0.3,1.02,-73.61,152.77,-34.12
-0.81,-0.3,0.98,-75.81,160.64,-34.48
-0.78,-0.31,0.93,-76.23,164.43,-34.24
-0.76,-0.3,0.84,-87.1,176.33,-26.55
-0.77,-0.26,0.76,-92.41,183.17,-18.8
-0.72,-0.07,0.63,-95.15,183.17,-5.74
-0.67,-0.01,0.59,-98.21,179.93,-9.34
