ACC_X,ACC_Y,ACC_Z,GIR_X,GIR_Y,GIR_Z
0.0,0.0,0.0,0.0,0.0,0.0
-0.18,0.82,0.56,-21.73,74.95,-108.7
-0.19,0.84,0.58,-28.93,64.94,-111.69
-0.2,0.76,0.52,-47.3,45.29,-118.71
-0.18,0.69,0.53,-56.88,17.88,-121.03
-0.15,0.77,0.58,-61.4,20.14,-119.69
-0.15,0.77,0.46,-61.04,21.18,-129.7
-0.19,0.71,0.43,-60.91,20.08,-138.49
-0.22,0.63,0.34,-39.18,20.94,-151.86
-0.22,0.54,0.32,-52.37,15.93,-175.72
-0.3,0.31,0.31,-62.56,-1.59,-181.64
-0.28,0.28,0.25,-57.07,-14.95,-180.3
-0.29,0.21,0.23,-65.37,-22.52,-182.13
-0.31,0.06,0.17,-86.61,-31.13,-184.33
-0.32,0.06,0.09,-84.29,-32.1,-182.25
-0.3,-0.02,-0.13,-66.71,-37.6,-189.15
-0.27,-0.67,-0.48,-20.2,-50.72,-219.54
-0.33,-1.12,-0.62,-11.96,-62.13,-224.3
-0.32,-1.67,-0.61,12.33,-109.56,-176.57
-0.27,-1.59,-0.39,34.18,-137.27,-64.64
-0.1,-0.81,-0.08,33.45,-166.75,-40.77
-0.02,-0.76,0.21,22.83,-182.92,-47.61
-0.04,-1.0,0.41,13.12,-189.39,-57.62
0.01,-1.34,0.79,-3.05,-184.08,-35.58
0.06,-1.24,0.87,-16.6,-168.52,-6.71
0.13,-0.84,0.83,-5.98,-134.4,43.03
0.11,-0.75,1.0,14.4,-131.29,51.39
0.1,-0.73,1.01,11.17,-123.84,50.66
-0.07,-0.68,0.92,-14.47,-103.64,52.19
-0.22,-0.56,0.85,-22.64,-99.98,62.19
-0.19,-0.17,0.71,10.8,-114.01,84.96
-0.06,0.24,1.01,48.22,-151.18,86.18
0.0,0.14,1.28,53.53,-168.95,63.66
0.19,-0.7,2.04,50.96,-185.73,9.46
0.19,-1.23,2.23,49.5,-169.8,6.41
0.08,-1.34,1.88,-24.17,-85.88,80.08
-0.1,-0.4,1.43,-46.63,-54.2,176.88
-0.11,-0.07,1.5,-47.73,-68.79,196.59
-0.14,0.12,1.57,-101.99,-74.89,192.26
-0.21,0.15,1.6,-133.73,-73.73,188.42
-0.27,0.15,1.82,-165.95,-74.95,191.71
-0.37,0.34,1.88,-156.98,-51.51,213.81
-0.43,0.63,1.85,-149.41,-36.56,227.66
-0.41,1.07,2.02,-140.01,-18.68,224.37
-0.4,1.13,2.11,-148.8,-8.0,207.7
-0.5,1.23,2.04,-178.96,29.91,169.56
-0.5,1.49,2.21,-147.28,52.06,137.51
-0.51,1.68,2.15,-123.47,78.98,113.83
-0.52,1.95,1.52,-74.16,137.88,44.31
-0.52,1.94,1.35,-63.17,144.71,2.2
-0.63,1.57,1.12,-82.89,143.8,-65.67
-0.63,1.65,0.89,-84.35,129.64,-59.75
-0.63,1.83,1.0,-86.0,110.17,-49.8
-0.57,2.35,1.19,-71.72,93.26,-54.57
-0.59,2.47,1.25,-67.57,96.44,-80.51
-0.56,2.49,1.28,-34.3,121.95,-158.26
-0.62,2.29,0.86,1.04,167.79,-238.46
-0.71,2.14,0.56,5.43,181.64,-271.0
-0.79,1.26,0.4,-19.04,166.14,-283.45
-0.65,1.3,0.3,-19.35,163.76,-240.17
-0.54,1.43,0.21,-45.17,129.15,-222.53
-0.57,1.28,0.32,-57.43,80.08,-250.43
-0.47,0.84,0.3,-64.94,70.56,-247.99
-0.41,0.77,0.1,-91.8,53.47,-222.96
-0.37,0.74,0.03,-97.47,35.46,-215.82
-0.33,0.55,-0.02,-88.13,2.44,-212.52
-0.33,0.46,-0.17,-74.4,-20.32,-215.64
-0.28,0.07,-0.27,-76.84,-33.94,-217.77
-0.21,-0.22,-0.12,-65.31,-70.07,-200.68
-0.13,-0.31,-0.04,-52.49,-72.75,-186.58
-0.0,-0.27,-0.1,-37.96,-60.97,-157.96
-0.01,-0.3,-0.19,-30.7,-65.25,-147.28
0.03,-0.62,-0.22,-36.68,-74.52,-144.71
0.09,-0.82,-0.07,-21.12,-87.4,-124.15
0.13,-0.76,0.05,-8.97,-83.01,-105.04
0.17,-0.78,0.31,27.65,-66.83,-72.33
0.13,-0.73,0.31,33.39,-30.03,-42.91
0.13,-0.71,0.26,41.08,-27.71,-34.06
0.05,-0.67,-0.47,-8.54,-179.93,-146.55
0.22,-2.01,2.19,163.51,-377.5,-299.8
-0.18,-0.3,0.37,-53.41,-102.17,-105.29
-0.04,-0.96,-0.15,-40.89,-170.17,-83.86
-0.05,-0.99,1.12,-52.37,-207.46,-13.0
-0.11,-0.24,0.88,-75.07,-98.88,109.62
-0.13,0.07,0.5,-74.89,-51.64,108.83
-0.09,0.17,0.76,-14.34,-90.27,34.0
-0.07,0.08,0.93,-26.79,-68.18,-41.26
-0.04,-0.51,0.88,-20.75,-62.99,-55.66
0.32,-1.5,1.02,-36.01,-47.61,-49.87
0.14,-1.22,1.12,-92.83,-35.46,-20.94
0.04,-0.78,1.06,-131.71,-44.8,78.25
0.12,-0.7,1.21,-284.3,-36.32,140.87
0.1,-0.71,1.36,-347.9,-12.57,168.03
0.18,0.34,1.31,-460.08,60.91,247.07
-0.2,0.56,1.31,-233.52,67.32,252.44
-0.01,0.61,1.31,185.67,27.34,221.07
0.08,0.84,1.43,21.97,77.51,211.36
0.22,0.98,1.34,34.12,102.48,183.29
0.05,0.06,0.68,-157.96,150.63,104.0
0.05,0.07,0.89,-327.7,120.36,138.98
-0.03,0.63,1.44,-207.4,57.74,234.92
-0.03,1.08,1.55,-184.51,85.82,275.33
-0.04,1.66,1.48,-224.0,122.86,253.23
-0.08,1.78,1.09,-351.14,201.05,182.8
-0.06,1.87,0.85,-381.23,231.57,156.56
-0.07,2.11,0.37,-306.76,256.1,122.25
-0.07,2.25,0.16,-242.61,241.39,77.7
-0.08,2.35,-0.21,-212.59,233.83,44.62
-0.11,2.26,-0.75,-162.17,222.9,-13.18
-0.12,2.22,-0.93,-153.56,204.77,-39.12
-0.16,2.07,-0.92,-82.21,123.29,-88.93
-0.19,1.97,-0.72,-66.16,74.71,-128.36
-0.23,1.8,-0.76,-40.34,82.15,-138.12
-0.27,1.73,-1.17,-11.47,86.91,-154.17
-0.29,1.71,-1.24,-0.98,67.08,-165.41
-0.31,1.76,-1.1,12.02,12.15,-190.92
-0.32,1.8,-0.99,20.08,-12.39,-233.28
-0.48,1.26,-0.93,25.88,-13.98,-266.3
-0.46,0.26,-1.24,18.92,-10.74,-287.17
-0.34,0.29,-1.33,10.07,-25.63,-240.54
-0.2,1.05,-1.12,22.4,-86.67,-156.37
-0.23,1.0,-0.89,19.1,-110.35,-206.85
-0.26,0.26,-0.61,-37.23,-115.48,-215.45
-0.28,-0.12,-0.67,-57.86,-101.38,-181.15
-0.28,-0.27,-0.8,-56.95,-99.37,-162.6
-0.26,-0.3,-0.64,-72.57,-141.3,-108.15
-0.21,-0.2,-0.45,-75.44,-164.0,-60.67
-0.14,-0.11,-0.19,-76.23,-182.8,-52.86
-0.23,-0.37,0.01,-57.86,-200.74,-47.55
-0.22,-0.5,0.18,-38.76,-217.71,-37.6
-0.17,-0.55,0.6,-31.49,-237.12,3.17
-0.13,-0.56,0.74,-41.32,-229.0,41.14
-0.09,-0.54,0.86,-54.5,-201.54,60.36
-0.07,-0.42,0.97,-75.13,-177.0,96.68
-0.06,-0.34,0.98,-71.9,-167.79,110.72
-0.06,-0.24,1.15,-68.73,-164.92,126.16
-0.04,-0.24,1.36,-56.82,-169.92,148.56
-0.05,-0.16,1.74,-36.5,-159.55,154.3
-0.07,-0.18,1.85,-48.4,-104.74,170.1
-0.09,-0.12,1.85,-49.62,-78.12,187.99
-0.16,0.32,1.79,-33.2,-35.89,234.62
-0.2,0.55,1.77,-26.31,-20.14,263.73
-0.23,0.96,1.86,-26.06,7.51,260.5
-0.2,1.47,1.96,-9.64,43.15,264.53
-0.29,1.67,1.9,-28.38,68.85,252.38
-0.21,1.68,1.69,-59.02,130.86,192.5
-0.26,1.57,1.44,-69.15,162.05,164.86
-0.25,1.36,1.09,-106.93,181.4,134.89
-0.35,1.41,1.25,-115.6,175.29,128.72
-0.41,1.43,1.12,-104.55,197.27,126.04
-0.45,1.56,0.8,-90.39,231.57,119.02
-0.46,1.66,0.64,-81.54,240.3,115.17
-0.47,1.87,0.25,-89.11,261.29,99.55
-0.54,1.99,-0.18,-109.44,277.4,63.23
-0.54,1.93,-0.42,-104.49,272.64,36.8
-0.53,1.71,-0.55,-91.67,216.61,-6.71
-0.52,1.7,-0.43,-82.21,184.45,-14.77
-0.5,1.98,-0.4,-33.75,174.01,-17.88
-0.49,2.17,-0.66,2.56,188.11,-52.06
-0.52,2.13,-0.76,6.71,179.14,-79.16
-0.64,1.6,-0.89,8.61,150.09,-144.17
-0.63,1.31,-0.96,21.24,139.16,-156.13
-0.5,1.52,-1.03,47.24,106.08,-109.62
-0.42,1.98,-0.89,64.94,64.27,-102.91
-0.38,1.95,-0.74,85.21,43.21,-129.33
-0.34,1.75,-0.44,130.07,21.73,-173.52
-0.33,1.81,-0.4,151.18,25.63,-178.83
-0.34,1.77,-0.42,175.05,38.33,-208.56
-0.43,1.23,-0.81,172.06,56.64,-242.25
-0.37,0.93,-1.05,157.71,51.21,-237.73
-0.16,1.41,-0.78,60.91,-20.26,-174.19
-0.14,1.69,-0.47,59.14,-54.81,-169.19
-0.19,1.08,-0.23,67.99,-63.11,-248.78
-0.15,0.41,-0.27,74.04,-63.84,-272.34
-0.07,0.5,-0.14,77.09,-76.23,-249.76
-0.09,0.56,0.0,116.09,-76.66,-249.33
-0.14,0.12,-0.24,116.33,-55.66,-280.88
-0.17,-0.66,-0.51,70.19,-64.58,-282.65
-0.14,-0.35,-0.14,49.68,-124.33,-193.42
-0.05,0.0,0.06,50.9,-139.47,-167.85
-0.13,-0.34,0.19,52.8,-137.94,-210.88
-0.19,-0.76,0.17,44.92,-135.07,-230.22
-0.21,-1.32,0.29,20.63,-144.53,-205.2
-0.19,-1.14,0.59,9.03,-153.5,-122.13
-0.13,-1.01,0.65,1.46,-144.9,-97.47
-0.13,-1.1,0.68,-27.65,-123.9,-79.53
-0.13,-1.22,0.66,-34.61,-118.1,-69.03
-0.15,-1.3,0.63,-35.77,-114.69,-26.31
-0.11,-1.26,0.8,-40.59,-128.17,28.26
-0.03,-1.07,0.88,-33.57,-131.16,55.6
0.01,-0.66,0.99,-7.93,-132.45,106.57
0.02,-0.43,1.09,2.5,-136.72,123.78
0.0,-0.21,1.46,-8.67,-138.18,131.1
-0.01,-0.33,1.72,-60.06,-99.85,119.93
-0.02,-0.76,1.69,-74.89,-71.11,125.12
-0.1,-0.8,1.54,-61.58,-33.26,177.0
-0.15,-0.59,1.55,-44.62,-29.42,211.18
-0.22,-0.3,1.52,-26.18,-27.59,249.88
-0.24,0.05,1.63,-46.14,-24.17,296.33
-0.13,0.86,1.79,-29.85,-13.92,299.8
0.04,1.23,1.73,-51.82,30.03,252.81
0.12,1.38,1.65,-44.43,44.49,234.44
0.23,1.61,1.67,-41.75,56.34,195.98
0.24,1.49,1.73,-68.48,83.56,136.35
0.19,1.18,1.66,-82.76,107.06,130.31
0.11,1.71,1.34,-80.32,150.33,157.9
0.12,2.07,1.12,-80.08,167.05,162.6
0.11,2.56,0.66,-87.95,183.23,126.83
0.11,2.62,0.52,-104.49,165.59,39.92
0.13,2.32,0.49,-122.62,150.51,-6.1
0.11,2.15,0.58,-132.57,139.89,-45.78
0.08,2.16,0.57,-133.85,146.85,-55.05
-0.01,2.1,0.39,-144.29,172.36,-85.14
-0.09,2.08,0.19,-175.66,203.37,-115.48
-0.25,1.85,-0.41,-187.38,209.17,-137.76
-0.3,1.44,-0.91,-200.99,170.35,-172.42
-0.28,1.36,-0.97,-200.5,129.15,-173.65
-0.29,1.22,-0.77,-207.89,45.78,-177.43
-0.33,1.06,-0.64,-215.52,6.41,-199.77
-0.38,0.65,-0.67,-214.29,-2.2,-204.04
-0.45,0.11,-0.73,-218.2,-35.77,-198.91
-0.45,-0.12,-0.67,-212.4,-64.03,-182.37
-0.42,-0.24,-0.45,-193.12,-115.91,-122.44
-0.41,-0.23,-0.37,-169.43,-144.23,-79.16
-0.37,-0.38,-0.32,-162.6,-154.79,-66.16
-0.37,-0.64,-0.29,-139.71,-181.21,-42.18
-0.37,-0.76,-0.19,-125.49,-202.94,-25.82
-0.36,-0.81,0.18,-97.11,-248.11,9.83
-0.38,-0.96,0.41,-105.96,-256.1,33.26
-0.4,-1.39,0.73,-98.51,-252.5,62.93
-0.53,-1.18,1.0,-97.23,-234.38,162.41
-0.59,-0.92,1.12,-94.54,-226.5,208.19
-0.64,-0.53,1.43,-73.12,-223.82,255.25
-0.68,-0.42,1.68,-61.65,-226.75,278.69
-0.72,-0.19,2.34,-69.21,-217.47,293.33
-0.79,0.14,2.92,-89.17,-156.8,333.98
-0.83,0.4,3.0,-97.78,-95.83,359.74
-0.84,1.04,2.63,-123.47,49.38,399.6
-0.8,1.37,2.3,-128.54,133.79,403.93
-0.75,1.97,2.08,-174.13,147.83,392.64
-0.63,2.47,1.91,-155.03,182.37,348.21
-0.59,2.66,1.76,-143.86,202.76,311.22
-0.55,2.56,1.37,-144.04,233.83,193.42
-0.62,2.1,1.24,-154.17,238.65,73.43
-0.89,1.29,1.26,-157.29,237.12,56.34
-1.08,1.44,1.26,-120.67,253.36,95.95
-1.16,1.79,1.13,-93.08,273.99,114.81
-1.34,2.01,0.69,-93.75,320.74,82.09
-1.38,1.92,0.32,-82.58,345.21,30.94
-1.41,1.88,-0.25,-92.9,345.03,19.47
-1.46,2.15,-0.27,-109.56,289.73,-3.17
-1.54,2.13,-0.3,-120.79,281.19,-32.1
-1.61,1.7,-0.85,-115.11,305.6,-102.97
-1.6,1.57,-1.13,-117.49,299.74,-109.5
-1.49,1.82,-1.44,-127.69,240.54,-101.75
-1.54,2.08,-1.49,-164.79,168.7,-130.74
-1.66,1.88,-1.6,-163.45,149.35,-179.02
-1.59,1.09,-1.94,-95.64,84.11,-261.41
-1.5,0.93,-1.75,-102.97,18.74,-234.5
-1.38,1.14,-1.04,-101.32,-75.2,-224.37
-1.28,1.15,-1.0,-57.92,-74.52,-248.35
-1.28,1.07,-1.18,-39.43,-65.06,-257.51
-1.26,0.65,-1.44,1.59,-98.88,-271.42
-1.22,0.48,-1.35,29.72,-144.41,-265.38
-1.09,0.35,-0.9,85.75,-226.62,-236.63
-0.81,0.54,-0.34,-6.1,-246.28,-222.29
-0.74,0.47,-0.2,-52.19,-234.25,-223.94
-0.63,0.17,-0.29,-45.04,-207.28,-219.36
-0.59,-0.04,-0.32,-60.12,-206.18,-215.27
-0.5,-0.33,-0.31,-95.4,-223.45,-179.02
-0.39,-0.32,-0.14,-109.31,-255.37,-118.23
-0.36,-0.28,-0.04,-112.24,-270.2,-95.4
-0.32,-0.3,0.25,-130.86,-285.4,-64.82
-0.32,-0.39,0.35,-89.78,-286.25,-51.51
-0.29,-0.42,0.58,-111.27,-274.17,-13.55
-0.3,-0.41,0.71,-69.27,-261.6,22.28
-0.33,-0.39,0.75,-60.73,-256.96,39.67
-0.44,-0.35,0.96,-57.37,-265.62,77.88
-0.41,-0.28,1.2,-62.87,-283.87,98.33
-0.39,-0.12,2.07,-88.38,-315.25,127.38
-0.37,-0.32,2.65,-104.06,-242.43,131.9
-0.43,-0.47,2.7,-116.7,-171.63,144.71
-0.6,-0.33,2.53,-133.48,-21.79,237.73
-0.67,0.06,2.37,-109.44,35.22,299.56
-0.72,0.95,2.01,-71.41,106.08,382.51
-0.71,1.41,1.85,-123.6,154.91,371.46
-0.71,1.48,1.7,-139.53,183.35,347.84
-0.74,1.55,1.48,-158.87,225.34,307.86
-0.74,1.7,1.37,-148.93,241.27,302.73
-0.76,2.09,1.16,-130.25,265.81,285.1
-0.78,2.38,0.82,-139.04,291.14,231.2
-0.77,2.42,0.68,-139.59,290.1,190.12
-0.84,2.19,0.51,-138.92,269.78,92.65
-0.94,1.93,0.47,-134.4,260.86,49.56
-0.99,1.64,0.27,-119.2,260.31,16.97
-1.05,1.77,-0.0,-113.1,263.55,14.77
-1.04,1.82,-0.11,-121.83,260.68,3.66
-1.05,2.0,-0.21,-140.99,248.35,-24.54
-1.08,2.15,-0.23,-144.96,243.53,-41.2
-1.23,2.29,-0.31,-146.3,239.87,-103.82
-1.42,1.78,-0.76,-119.69,255.13,-197.08
-1.42,1.48,-1.05,-109.74,254.15,-221.56
-1.3,1.42,-1.4,-134.7,200.68,-201.97
-1.25,1.58,-1.38,-156.01,155.09,-191.16
-1.2,1.66,-1.09,-155.7,64.94,-223.51
-1.21,1.38,-1.01,-114.87,35.34,-273.62
-1.27,1.12,-1.26,-90.33,43.7,-298.1
-1.17,0.82,-1.82,-43.88,22.09,-303.71
-1.13,0.86,-1.88,-30.88,-29.11,-286.68
-1.09,0.84,-1.31,-24.48,-153.32,-274.66
-1.03,0.49,-0.8,39.18,-204.1,-279.97
-0.82,0.53,-0.73,47.36,-198.67,-257.57
-0.75,0.7,-0.72,76.35,-187.87,-234.56
-0.76,0.65,-0.74,83.07,-191.83,-250.98
-0.63,0.2,-0.63,-8.18,-200.74,-287.78
-0.65,-0.11,-0.46,-71.96,-222.05,-269.71
-0.5,-0.53,-0.35,-96.5,-235.41,-236.51
-0.35,-0.5,-0.18,-160.4,-245.91,-145.69
-0.31,-0.4,-0.17,-192.57,-244.63,-106.38
-0.29,-0.4,-0.08,-225.65,-256.9,-63.6
-0.27,-0.5,0.17,-155.4,-275.27,-35.28
-0.32,-0.72,0.25,-141.85,-272.16,-16.42
-0.36,-0.76,0.34,-114.87,-264.71,37.17
-0.4,-0.71,0.41,-83.25,-271.67,66.96
-0.4,-0.41,0.91,-108.83,-296.69,126.16
-0.41,-0.25,1.18,-86.73,-297.24,159.06
-0.49,-0.16,1.7,-84.05,-276.37,165.47
-0.57,-0.31,1.96,-97.23,-207.21,187.38
-0.57,-0.34,2.11,-110.41,-178.34,209.05
-0.64,-0.12,2.55,-116.39,-129.27,269.9
-0.73,0.05,2.72,-152.4,-12.02,321.41
-0.92,0.33,2.68,-173.58,74.65,340.88
-1.12,0.67,1.78,-179.87,238.89,375.12
-1.2,0.84,1.38,-186.22,281.37,387.82
-1.19,1.19,0.83,-189.88,306.09,401.25
-1.19,1.37,0.72,-211.85,282.84,385.19
-1.15,1.77,0.76,-205.51,264.4,373.96
-1.09,2.33,0.85,-208.44,258.79,343.14
-1.09,2.64,0.76,-220.4,279.3,317.93
-1.2,2.92,0.25,-255.92,336.24,213.93
-1.22,2.89,0.01,-232.3,322.81,79.22
-1.2,2.76,-0.24,-185.97,290.53,26.49
-1.34,2.59,-0.17,-127.32,235.78,-65.73
-1.41,2.35,-0.16,-113.22,227.48,-114.87
-1.53,1.79,-0.36,-93.51,237.49,-180.6
-1.52,1.58,-0.57,-99.37,250.24,-196.04
-1.47,1.48,-0.99,-108.22,244.2,-188.11
-1.44,1.79,-1.22,-139.59,200.93,-179.93
-1.46,1.91,-1.27,-152.1,173.46,-194.95
-1.47,1.9,-1.26,-183.29,120.73,-251.04
-1.51,1.75,-1.21,-176.21,66.96,-321.84
-1.53,1.26,-1.08,-169.56,50.11,-350.34
-1.53,0.7,-1.51,-108.83,54.75,-384.34
-1.5,0.38,-1.86,-64.33,49.62,-385.93
-1.27,0.09,-2.21,-38.33,-30.03,-308.17
-1.16,0.34,-1.96,-52.98,-176.7,-190.55
-1.0,0.94,-1.17,-19.59,-222.9,-175.54
-0.98,0.94,-0.89,103.7,-257.26,-224.55
-0.99,0.72,-0.79,135.68,-264.65,-262.21
-0.92,0.25,-0.52,121.28,-274.78,-300.17
-0.88,0.13,-0.38,45.65,-260.25,-297.55
-0.7,-0.21,-0.26,-21.06,-242.86,-282.9
-0.64,-0.42,-0.33,-114.75,-223.63,-212.1
-0.6,-0.47,-0.37,-138.92,-229.49,-174.01
-0.56,-0.56,-0.25,-198.3,-266.91,-106.02
-0.54,-0.57,-0.15,-234.56,-302.67,-35.95
-0.52,-0.48,0.13,-284.67,-312.01,-5.74
-0.49,-0.54,0.52,-265.56,-317.26,33.08
-0.5,-0.6,0.72,-218.69,-311.83,52.86
-0.51,-0.6,0.93,-143.01,-280.7,109.07
-0.55,-0.55,1.0,-130.07,-246.28,177.06
-0.61,-0.32,1.29,-103.58,-237.98,215.21
-0.53,0.19,1.63,-76.54,-221.31,286.56
-0.45,0.51,1.83,-84.72,-204.96,310.12
-0.42,0.91,2.16,-80.14,-156.19,291.56
-0.38,0.87,2.33,-113.34,-70.8,243.84
-0.43,0.63,2.49,-145.81,-9.89,242.07
-0.55,0.77,2.32,-184.81,125.06,273.8
-0.63,0.99,2.04,-184.88,189.15,293.03
-0.68,1.36,1.47,-176.09,264.77,309.14
-0.74,1.5,1.29,-172.3,276.12,303.53
-0.7,1.87,1.16,-175.72,281.13,294.43
-0.74,2.22,1.0,-160.77,304.38,261.54
-0.77,2.3,0.83,-155.82,325.2,235.29
-0.83,2.24,0.42,-181.21,356.99,165.65
-0.87,2.05,0.2,-195.31,364.2,87.77
-1.01,1.51,-0.14,-198.49,347.78,64.7
-1.03,1.44,-0.24,-225.4,304.08,74.28
-1.0,1.69,-0.26,-228.88,287.29,87.4
-1.13,2.23,-0.34,-232.73,283.08,66.83
-1.17,2.4,-0.46,-235.35,288.82,-16.91
-1.42,2.42,-0.75,-236.82,288.88,-77.33
-1.73,1.96,-1.17,-147.16,273.5,-210.39
-1.84,1.47,-1.4,-99.85,255.07,-272.34
-1.77,0.61,-1.74,-95.21,189.88,-306.34
-1.64,0.51,-1.81,-133.67,145.39,-206.67
-1.44,1.02,-1.62,-202.7,35.89,-174.13
-1.41,1.54,-1.23,-200.2,-50.48,-177.06
-1.46,1.59,-1.05,-155.27,-79.9,-215.58
-1.64,1.07,-1.26,-42.79,-79.16,-330.38
-1.64,0.69,-1.45,3.91,-76.9,-367.43
-1.52,0.33,-1.49,35.34,-125.67,-343.2
-1.31,0.4,-1.27,97.17,-200.44,-275.39
-1.23,0.46,-1.15,126.65,-226.68,-250.12
-1.05,0.55,-0.91,112.67,-262.45,-216.74
-0.98,0.6,-0.76,80.81,-274.96,-208.68
-0.93,0.81,-0.42,30.76,-277.22,-226.01
-0.74,0.26,-0.24,-26.86,-245.06,-308.84
-0.72,-0.19,-0.35,-9.95,-231.26,-323.12
-0.58,-0.61,-0.39,-97.35,-236.45,-246.03
-0.51,-0.55,-0.37,-154.72,-248.11,-180.11
-0.39,-0.23,-0.19,-252.99,-276.37,-69.95
-0.3,-0.11,0.14,-239.69,-299.38,-26.43
-0.26,-0.14,0.27,-203.19,-297.91,-20.39
-0.22,-0.28,0.34,-134.52,-273.86,-12.76
-0.2,-0.32,0.29,-125.24,-261.05,-3.11
-0.25,-0.25,0.34,-133.73,-250.73,29.11
-0.32,-0.26,0.52,-115.97,-252.14,50.35
-0.34,-0.32,0.64,-128.36,-253.05,66.47
-0.5,-0.26,0.89,-170.1,-251.71,134.22
-0.56,-0.14,1.02,-191.89,-245.67,177.86
-0.49,0.17,1.49,-161.68,-240.66,261.47
-0.34,0.73,2.1,-115.17,-228.27,315.67
-0.31,0.98,2.39,-95.7,-197.14,317.26
-0.31,0.92,2.66,-51.51,-83.25,270.69
-0.43,0.82,2.63,-60.55,-4.09,259.03
-0.63,0.8,2.05,-51.45,159.85,282.29
-0.65,1.2,1.45,-80.44,238.4,321.84
-0.65,1.44,1.28,-102.42,250.92,329.1
-0.62,1.68,1.02,-128.66,263.12,302.98
-0.61,1.72,0.92,-144.41,264.04,280.15
-0.62,1.75,0.84,-154.54,256.16,239.44
-0.59,1.85,0.75,-148.07,259.34,211.61
-0.64,1.86,0.7,-154.11,263.92,190.73
-0.77,1.73,0.61,-166.63,267.33,141.3
-0.86,1.67,0.62,-171.33,266.91,124.15
-1.03,1.64,0.54,-152.65,279.66,107.6
-1.08,1.78,0.33,-149.9,303.65,96.25
-1.18,1.9,0.21,-170.72,314.51,87.59
-1.36,2.23,-0.2,-215.21,344.85,51.64
-1.47,2.35,-0.48,-235.6,359.56,18.13
-1.65,2.43,-1.22,-249.02,365.3,-69.64
-1.7,2.35,-1.82,-223.33,284.85,-170.17
-1.76,2.02,-1.86,-172.06,201.11,-218.69
-1.72,1.46,-1.24,-100.1,28.93,-292.85
-1.65,1.33,-0.89,-109.13,-11.41,-304.08
-1.54,1.42,-0.7,-145.32,0.61,-305.42
-1.54,1.44,-1.12,-132.02,25.21,-335.14
-1.69,0.98,-1.31,-105.35,21.36,-365.54
-1.56,0.14,-1.77,-26.18,-8.67,-389.53
-1.4,-0.01,-1.9,-21.73,-40.83,-345.46
-1.21,0.47,-1.56,-46.69,-149.54,-208.98
-1.11,0.7,-1.2,-4.64,-230.9,-177.67
-0.94,0.74,-0.7,34.42,-238.59,-190.25
-0.86,0.4,-0.65,56.15,-210.14,-228.52
-0.82,0.14,-0.79,50.84,-186.22,-243.35
-0.68,-0.31,-1.08,3.11,-179.02,-225.71
-0.61,-0.35,-0.98,-111.02,-242.07,-130.13
-0.5,-0.06,-0.55,-149.35,-266.72,-87.1
-0.35,0.16,-0.28,-200.81,-280.7,-43.58
-0.31,0.2,-0.2,-208.8,-275.15,-35.89
-0.29,-0.03,-0.14,-151.31,-261.54,-45.04
-0.27,-0.25,-0.13,-100.04,-265.2,-46.51
-0.24,-0.51,0.02,-98.21,-272.58,-27.34
-0.2,-0.28,0.31,-102.48,-277.77,28.08
-0.21,-0.22,0.4,-70.8,-269.41,38.21
-0.31,-0.44,0.34,-62.38,-232.12,43.15
-0.41,-0.51,0.31,-89.84,-219.73,90.7
-0.57,-0.36,0.39,-96.31,-226.14,127.81
-0.71,-0.04,0.76,-103.03,-255.55,194.15
-0.74,0.15,0.99,-62.5,-272.95,218.93
-0.72,0.45,1.51,-63.9,-299.74,245.48
-0.67,0.58,1.78,-77.82,-308.96,248.72
-0.53,0.74,2.42,-46.02,-305.36,239.62
-0.68,0.62,2.95,-10.62,-238.46,210.27
-0.76,0.54,3.11,-29.17,-164.0,206.42
-0.83,0.58,3.12,-144.78,54.75,235.72
-0.88,0.72,2.59,-223.14,287.05,263.18
-0.92,0.9,1.59,-228.52,336.55,263.06
-0.92,1.02,1.06,-187.26,348.51,269.41
-0.95,1.15,0.96,-186.28,332.28,274.11
-1.08,1.46,1.01,-142.94,300.11,278.75
-1.12,1.63,1.05,-133.61,301.82,263.37
-1.22,1.82,0.98,-156.07,318.97,241.7
-1.41,1.8,0.68,-234.25,368.84,187.01
-1.42,1.77,0.54,-267.58,388.55,165.04
-1.71,1.96,0.13,-336.43,422.91,131.29
-1.72,2.07,-0.15,-351.87,443.91,83.31
-1.78,2.27,-0.73,-368.53,441.1,47.61
-1.84,2.17,-1.25,-339.48,378.72,-51.15
-1.85,2.04,-1.33,-298.28,312.68,-98.45
-1.83,1.92,-1.01,-202.64,163.88,-159.18
-1.9,1.97,-0.69,-211.3,113.34,-209.53
-2.07,1.76,-0.69,-156.56,130.86,-252.44
-2.13,1.39,-1.11,-78.74,155.64,-325.93
-2.15,1.25,-1.27,-59.57,151.49,-346.25
-2.02,1.15,-1.58,-95.83,121.95,-358.83
-1.98,1.12,-1.66,-143.68,62.56,-351.56
-1.98,0.98,-1.79,-104.13,23.38,-355.41
-1.95,0.68,-1.69,39.79,-68.24,-365.84
-1.87,0.52,-1.52,101.01,-111.08,-362.49
-1.69,0.35,-1.12,187.13,-161.13,-337.4
-1.51,0.32,-0.97,173.1,-166.93,-290.16
-1.26,0.47,-0.75,100.83,-166.87,-265.32
-1.17,0.52,-0.84,135.01,-167.85,-259.77
-1.13,0.44,-0.96,167.66,-172.73,-269.17
-1.04,0.25,-0.72,62.38,-216.37,-268.74
-0.89,0.15,-0.44,-40.71,-237.49,-244.32
-0.76,-0.09,-0.11,-107.18,-259.28,-225.22
-0.6,-0.33,0.01,-210.33,-257.45,-173.34
-0.53,-0.41,-0.04,-278.02,-253.66,-138.98
-0.43,-0.17,0.01,-447.75,-260.19,-55.05
-0.41,0.0,0.2,-487.24,-268.92,-5.13
-0.34,0.0,0.67,-382.69,-254.15,-3.36
-0.26,-0.39,0.34,-131.59,-238.46,-10.68
-0.29,-0.48,0.47,-101.75,-255.19,2.44
-0.28,-0.42,0.75,-47.0,-259.22,46.26
-0.28,-0.37,0.78,-27.83,-249.15,80.57
-0.35,-0.25,0.78,-74.71,-236.33,107.91
-0.35,-0.05,1.03,-137.7,-262.15,160.34
-0.35,0.03,1.29,-139.89,-284.18,178.59
-0.31,0.11,1.88,-109.56,-309.94,202.03
-0.31,0.2,2.19,-92.96,-302.25,217.77
-0.24,0.49,2.54,-35.03,-227.66,255.55
-0.39,0.79,2.7,-29.85,-117.74,275.94
-0.43,0.89,2.73,-39.43,-53.53,279.48
-0.49,0.95,2.62,-88.81,85.45,270.14
-0.58,0.91,2.41,-134.7,160.16,259.16
-0.8,0.81,1.77,-192.81,283.81,251.95
-1.03,0.97,1.27,-226.75,352.66,276.12
-1.13,1.09,1.12,-224.49,370.73,290.59
-1.26,1.43,0.9,-176.94,385.74,315.31
-1.41,1.6,0.82,-165.71,391.17,323.18
-1.62,2.05,0.57,-194.4,407.41,319.15
-1.63,2.69,0.07,-287.9,462.22,285.22
-1.73,2.83,-0.34,-328.92,495.54,233.64
-1.69,2.81,-1.21,-417.11,500.73,86.43
-1.7,2.6,-1.54,-382.02,461.55,9.7
-1.62,2.16,-1.84,-248.11,294.56,-97.78
-1.6,2.2,-1.27,-204.16,113.22,-132.26
-1.67,2.18,-0.99,-182.5,69.52,-162.11
-1.75,1.74,-0.83,-115.97,52.12,-251.22
-1.72,1.54,-0.89,-95.89,52.49,-281.43
-1.68,1.42,-0.94,-116.39,41.75,-301.09
-1.7,1.48,-0.82,-125.61,11.23,-309.63
-1.77,1.38,-0.78,-103.76,4.64,-332.4
-1.79,0.75,-1.07,70.62,22.89,-402.95
-1.69,0.47,-1.24,127.56,35.28,-406.43
-1.43,0.29,-1.52,125.85,22.4,-328.0
-1.22,0.56,-1.25,81.85,-65.49,-231.26
-1.12,0.67,-1.08,53.34,-106.99,-205.44
-1.0,0.84,-0.76,1.71,-159.42,-190.0
-0.95,0.83,-0.68,-7.87,-165.95,-197.33
-0.94,0.56,-0.73,2.14,-157.71,-231.02
-0.88,0.1,-0.83,49.74,-170.78,-258.12
-0.82,-0.11,-0.8,37.11,-192.32,-251.16
-0.6,-0.26,-0.38,-85.08,-257.32,-187.13
-0.54,-0.24,-0.17,-137.02,-281.07,-144.65
-0.33,-0.08,0.07,-269.78,-290.83,-59.02
-0.26,0.17,0.18,-372.92,-275.76,1.22
-0.21,0.23,0.22,-399.17,-260.38,8.12
-0.08,-0.02,0.37,-336.43,-223.33,-13.0
-0.13,-0.23,0.27,-219.79,-204.9,-19.53
-0.07,-0.55,0.03,-218.14,-195.98,15.01
-0.15,-0.4,0.21,-120.12,-241.09,96.86
-0.27,-0.22,0.4,-109.5,-254.58,122.44
-0.38,-0.23,0.59,-30.4,-261.05,128.17
-0.41,-0.33,0.7,-9.16,-269.78,129.52
-0.54,-0.38,1.21,-22.03,-319.27,170.29
-0.54,-0.3,1.99,-46.88,-364.07,239.56
-0.51,0.13,2.36,-22.64,-371.15,268.31
-0.6,0.45,3.01,51.39,-347.72,278.38
-0.66,0.46,3.28,73.79,-295.9,267.76
-0.8,0.37,3.38,41.69,-104.98,261.72
-0.89,0.46,2.75,-116.7,163.39,304.87
-1.02,0.74,2.04,-117.98,270.14,317.81
-1.09,0.96,1.21,-194.52,346.62,324.04
-1.14,1.07,1.08,-213.13,338.07,323.97
-1.22,1.35,0.99,-138.85,305.79,330.69
-1.25,1.52,1.03,-130.31,300.84,332.89
-1.35,1.85,0.99,-142.58,320.56,326.42
-1.43,2.04,0.58,-231.87,384.95,285.1
-1.46,2.14,0.24,-291.99,418.46,255.43
-1.53,2.28,-0.39,-389.34,453.43,179.69
-1.53,2.26,-0.69,-385.31,407.78,78.92
-1.54,2.09,-1.04,-333.5,358.09,35.46
-1.56,1.98,-1.23,-205.87,265.75,-23.99
-1.56,1.97,-1.29,-165.1,230.83,-45.9
-1.58,1.97,-1.3,-126.77,162.9,-96.13
-1.61,1.88,-1.28,-79.16,108.52,-166.2
-1.62,1.59,-1.27,-79.1,87.04,-191.89
-1.63,1.54,-1.3,-105.1,51.64,-218.93
-1.69,1.39,-1.32,-111.15,36.25,-240.11
-1.71,0.72,-1.35,-45.78,3.91,-295.17
-1.58,0.45,-1.39,-33.63,-34.85,-260.07
-1.32,0.49,-1.38,-95.7,-58.23,-209.72
-1.21,0.91,-1.24,-164.98,-114.2,-141.72
-1.16,1.0,-1.15,-138.79,-141.85,-143.31
-1.11,0.82,-0.9,-88.99,-179.93,-172.3
-1.13,0.61,-0.88,-44.74,-184.81,-205.63
-1.08,0.04,-1.05,-41.14,-188.17,-212.77
-0.9,-0.23,-0.99,-70.43,-228.52,-166.63
-0.84,-0.14,-0.78,-90.09,-259.7,-122.62
-0.69,0.15,-0.35,-130.0,-294.62,-65.31
-0.6,0.21,-0.23,-92.16,-283.14,-65.31
-0.52,0.04,-0.13,-54.32,-277.59,-76.35
-0.48,-0.38,-0.11,-5.62,-268.92,-88.81
-0.43,-0.52,-0.06,-3.85,-269.59,-75.74
-0.37,-0.56,0.13,-0.55,-282.41,-16.78
-0.35,-0.5,0.26,-4.21,-289.55,33.87
-0.34,-0.44,0.52,-8.48,-289.67,49.56
-0.39,-0.49,0.77,-4.7,-287.11,78.92
-0.44,-0.49,0.9,4.76,-288.64,97.29
-0.43,-0.37,1.32,11.05,-304.02,145.63
-0.43,-0.23,1.61,28.69,-315.12,202.58
-0.35,0.1,2.19,26.31,-301.76,223.08
-0.43,0.43,2.73,35.34,-223.88,237.06
-0.48,0.5,2.81,52.86,-152.65,233.58
-0.57,0.62,2.7,-71.66,31.8,229.55
-0.66,0.66,2.29,-98.39,199.46,242.31
-0.81,0.9,1.5,-68.66,235.17,262.27
-0.74,1.46,1.21,-38.7,239.87,305.54
-0.75,1.76,1.25,-36.07,231.32,315.86
-0.79,2.22,1.39,-60.85,241.82,293.09
-0.83,2.39,1.3,-74.77,315.8,242.31
-0.92,2.63,0.73,-132.02,368.71,210.45
-0.95,2.6,-0.13,-201.78,443.73,130.49
-0.97,2.5,-0.52,-249.45,449.22,84.53
-0.91,2.07,-1.1,-245.91,386.66,-1.16
-0.91,1.96,-1.22,-251.1,271.67,-24.29
-0.84,2.01,-1.34,-189.27,224.49,-26.86
-0.87,2.36,-1.09,-158.94,133.42,-45.72
-0.88,2.38,-0.99,-132.57,112.37,-80.75
-0.97,2.0,-1.03,-78.31,98.39,-168.95
-1.02,1.8,-1.1,-61.58,93.57,-215.76
-1.13,1.38,-1.16,-43.95,73.49,-232.3
-1.07,0.8,-1.23,-20.2,52.92,-248.9
-0.98,0.66,-1.3,-17.88,40.71,-227.72
-0.82,0.93,-1.35,-77.88,-6.9,-149.84
-0.78,1.15,-1.23,-106.63,-40.28,-129.7
-0.77,1.27,-0.97,-106.45,-84.72,-143.07
-0.82,0.99,-1.19,-98.27,-76.78,-174.19
-0.82,0.82,-1.3,-91.43,-83.8,-184.51
-0.82,0.42,-1.21,-72.57,-138.0,-191.83
-0.76,0.29,-1.08,-70.8,-163.21,-165.59
-0.68,0.31,-0.98,-53.47,-179.57,-137.57
-0.56,0.46,-0.9,-44.43,-198.18,-117.43
-0.54,0.42,-0.83,-28.81,-210.57,-122.01
-0.48,0.2,-0.65,-4.82,-233.52,-130.98
-0.46,0.18,-0.6,-21.36,-234.13,-104.49
-0.45,0.23,-0.52,-42.05,-237.12,-91.25
-0.44,0.03,-0.38,-46.88,-251.46,-88.87
-0.43,-0.08,-0.33,-63.11,-253.17,-80.32
-0.42,-0.1,-0.12,-93.93,-265.26,-38.27
-0.42,-0.09,0.03,-94.67,-274.11,-20.14
-0.36,-0.26,0.29,-69.82,-279.42,-4.21
-0.29,-0.41,0.52,-83.56,-265.69,24.66
-0.27,-0.41,0.63,-89.42,-254.15,50.6
-0.28,-0.35,0.74,-73.0,-223.08,98.14
-0.3,-0.3,0.76,-60.85,-211.36,117.0
-0.35,-0.1,0.97,-57.92,-209.84,153.38
-0.37,0.09,1.33,-47.42,-220.76,176.57
-0.35,0.13,1.56,-45.35,-225.1,180.11
-0.44,0.2,2.07,-23.8,-219.79,192.81
-0.41,0.26,2.31,11.29,-204.59,203.19
-0.45,0.41,2.65,24.84,-133.3,227.84
-0.54,0.7,2.75,-34.0,-11.6,254.82
-0.6,0.93,2.67,-79.16,63.05,264.95
-0.64,1.23,2.13,-152.16,204.35,255.37
-0.72,1.29,1.93,-187.99,249.57,241.15
-0.92,1.41,1.57,-139.22,302.12,235.23
-1.02,2.14,1.1,-153.08,373.29,278.2
-1.08,2.64,0.63,-173.4,426.21,289.92
-1.07,3.41,-0.76,-303.65,532.65,230.35
-1.09,3.42,-1.53,-362.85,543.76,144.1
-0.71,2.52,-2.3,-292.97,360.6,-68.97
-0.63,1.75,-0.93,-205.99,36.99,-124.45
-0.57,1.98,-0.22,-172.06,-24.84,-94.73
-0.75,2.5,-0.01,-89.11,75.93,-95.52
-0.92,2.34,-0.61,-65.55,177.86,-147.03
-1.09,1.49,-1.87,-51.21,265.81,-240.42
-1.05,1.13,-2.49,-63.54,184.39,-218.51
-0.99,1.12,-2.47,-66.1,107.18,-194.46
-0.9,1.07,-1.79,-71.04,-32.78,-180.97
-0.82,1.0,-1.5,-66.96,-62.32,-185.06
-0.74,0.91,-1.36,-41.75,-62.01,-189.03
-0.72,0.85,-1.52,-33.57,-54.02,-195.31
-0.74,0.8,-1.59,-21.3,-61.58,-199.71
-0.74,0.55,-1.49,-7.08,-102.6,-210.45
-0.75,0.35,-1.35,-5.49,-125.06,-211.06
-0.66,-0.07,-1.14,-16.11,-150.21,-187.81
-0.58,0.02,-0.95,-79.1,-167.18,-108.52
-0.43,0.25,-0.86,-90.39,-177.55,-67.5
-0.36,0.5,-0.65,-71.41,-203.98,-47.73
-0.34,0.44,-0.53,-57.13,-213.93,-61.83
-0.29,0.16,-0.34,-55.48,-213.26,-85.75
-0.25,-0.01,-0.22,-47.18,-203.86,-86.55
-0.15,-0.28,-0.18,-46.88,-198.61,-73.49
-0.06,-0.25,-0.16,-61.1,-180.91,-21.06
-0.06,-0.11,-0.19,-74.95,-173.46,4.21
-0.04,0.03,-0.22,-70.01,-180.36,20.75
-0.1,-0.03,-0.09,-16.36,-213.99,7.02
-0.23,-0.46,-0.02,13.31,-233.76,5.37
-0.31,-0.7,0.25,60.18,-282.59,44.01
-0.34,-0.67,0.48,66.77,-307.8,78.0
-0.42,-0.26,1.1,64.58,-341.8,154.54
-0.42,-0.03,1.38,102.84,-338.87,185.36
-0.35,0.2,1.92,116.21,-326.35,174.68
-0.23,0.03,2.39,69.03,-273.13,137.02
-0.26,-0.06,2.62,24.35,-232.6,132.45
-0.33,-0.23,2.85,-31.43,-100.59,157.9
-0.43,-0.24,2.76,-101.81,89.9,221.37
-0.56,0.12,1.99,-117.55,171.02,256.84
-0.67,0.62,1.38,-135.99,238.28,297.61
-0.74,0.77,1.28,-140.81,241.09,300.11
-0.82,1.08,1.29,-108.28,239.81,307.86
-0.86,1.38,1.28,-63.42,269.04,343.2
-0.92,2.22,0.9,-66.35,295.17,352.05
-0.84,2.63,0.51,-102.29,311.58,281.13
-0.77,2.62,0.48,-141.05,288.45,225.46
-0.88,2.66,0.44,-182.13,273.13,147.4
-0.91,2.74,0.17,-154.79,314.94,88.07
-0.87,2.59,-0.45,-153.75,315.06,47.85
-0.87,2.16,-0.68,-144.96,258.54,-26.18
-0.89,2.01,-0.67,-123.72,226.44,-47.73
-0.91,2.09,-0.93,-120.24,215.58,-56.76
-0.92,2.17,-1.15,-134.03,223.75,-95.83
-0.97,1.78,-1.57,-102.11,207.21,-136.66
-0.99,1.2,-1.83,-62.01,145.87,-179.93
-0.95,1.09,-1.92,-59.51,111.57,-171.51
-0.86,1.11,-1.88,-76.05,29.79,-149.05
-0.81,1.07,-1.67,-85.27,-46.63,-157.9
-0.7,1.07,-1.26,-95.76,-60.85,-160.16
-0.73,1.36,-1.37,-125.18,-46.39,-167.6
-0.81,1.32,-1.54,-120.85,-44.8,-191.1
-0.97,0.55,-1.58,-110.6,-96.86,-266.05
-0.99,-0.02,-1.43,-74.89,-172.3,-269.9
-0.72,-0.68,-1.0,-57.19,-196.59,-209.29
-0.5,0.21,-0.74,-133.0,-199.34,-33.57
-0.46,0.71,-0.73,-161.62,-190.19,0.0
-0.46,0.65,-0.62,-91.31,-202.76,-72.81
-0.49,0.22,-0.53,-42.54,-213.75,-135.8
-0.48,-0.4,-0.39,-37.6,-217.83,-122.74
-0.37,-0.39,-0.05,-54.87,-234.56,-48.95
-0.31,-0.24,0.17,-71.72,-240.72,-11.84
-0.16,0.0,0.57,-91.61,-226.56,27.59
-0.1,0.01,0.68,-81.18,-174.5,23.5
-0.04,-0.33,0.71,-36.87,-143.43,21.06
-0.08,-0.59,0.56,-9.77,-99.85,55.18
-0.09,-0.56,0.5,-9.64,-91.86,89.29
-0.07,-0.26,0.72,-23.56,-103.88,154.66
-0.05,-0.08,0.89,-15.99,-94.12,200.01
-0.05,0.27,1.17,7.32,-94.97,219.85
-0.04,0.57,1.36,26.37,-51.76,245.24
-0.06,0.68,1.45,28.63,-28.44,252.44
-0.1,0.98,1.51,20.45,31.62,271.06
-0.13,1.14,1.5,6.47,94.91,278.99
-0.22,1.47,1.45,-69.03,131.84,275.09
-0.32,1.63,1.22,-116.58,209.05,246.09
-0.39,1.63,1.07,-122.25,237.49,228.88
-0.53,1.76,0.81,-118.29,274.23,219.73
-0.6,1.94,0.67,-116.64,289.61,229.92
-0.74,2.53,0.21,-146.73,334.41,230.53
-0.87,3.1,-0.68,-174.32,384.83,179.38
-0.9,3.19,-1.21,-195.68,394.9,120.97
-0.86,2.71,-1.93,-187.07,308.96,-34.12
-0.83,2.32,-1.93,-159.06,216.31,-117.49
-0.83,1.81,-1.14,-161.19,43.58,-122.07
-0.85,1.74,-0.71,-193.05,21.79,-123.23
-0.87,1.69,-0.85,-213.99,49.8,-140.62
-0.96,1.33,-1.42,-255.62,85.33,-195.92
-1.03,1.05,-1.6,-287.41,77.27,-234.01
-1.08,0.48,-1.71,-282.71,19.96,-230.41
-1.15,0.12,-1.59,-253.91,-31.86,-209.84
-1.15,-0.05,-1.64,-212.04,-40.28,-205.87
-1.09,-0.25,-1.85,-124.33,-51.15,-181.34
-1.07,-0.23,-2.0,-66.41,-65.0,-158.87
-1.04,0.02,-2.01,14.28,-137.33,-126.53
-0.97,0.15,-1.49,4.03,-216.0,-127.08
-0.97,0.12,-1.28,27.47,-232.67,-136.23
-0.93,-0.24,-1.18,158.14,-237.85,-168.33
-0.89,-0.37,-1.21,216.86,-234.44,-165.59
-0.78,-0.3,-1.22,232.06,-246.95,-116.52
-0.67,0.01,-0.97,141.24,-288.27,-66.22
-0.64,0.08,-0.8,118.96,-312.07,-61.22
-0.59,-0.03,-0.45,75.87,-334.53,-74.89
-0.54,-0.17,-0.26,40.1,-333.13,-79.22
-0.41,-0.37,0.15,-79.65,-305.79,-49.74
-0.26,-0.33,0.34,-125.85,-251.04,14.4
-0.22,-0.22,0.3,-123.9,-219.24,44.25
-0.19,-0.09,0.15,-88.87,-181.21,71.96
-0.2,-0.09,0.13,-50.17,-184.39,71.29
-0.22,-0.18,0.33,0.79,-210.33,65.8
-0.25,-0.32,0.54,78.19,-229.0,81.6
-0.29,-0.36,0.62,108.34,-233.83,98.14
-0.33,-0.21,0.79,121.83,-244.87,149.29
-0.36,-0.07,0.97,102.23,-257.69,176.27
-0.31,0.26,1.39,86.49,-274.96,221.68
-0.35,0.48,1.73,87.34,-274.54,231.08
-0.34,0.54,2.07,54.75,-260.93,225.46
-0.33,0.45,2.54,16.97,-184.39,204.16
-0.44,0.35,2.65,-8.85,-123.66,205.44
-0.66,0.38,2.65,-90.33,30.58,258.48
-0.89,0.96,2.17,-151.61,191.96,338.13
-0.94,1.32,1.89,-184.88,249.63,366.03
-1.13,1.86,1.52,-257.51,327.94,361.51
-1.16,1.99,1.29,-259.03,361.27,329.83
-1.19,1.86,0.8,-254.52,407.35,242.61
-1.25,1.63,0.57,-266.97,398.93,191.22
-1.44,1.8,0.5,-254.09,389.89,193.05
-1.54,2.51,0.21,-280.09,415.34,201.9
-1.59,2.71,-0.1,-313.42,446.04,167.48
-1.6,2.52,-0.83,-328.31,449.4,27.65
-1.6,1.74,-1.05,-241.82,329.41,-104.06
-1.56,1.44,-0.9,-209.72,254.7,-125.49
-1.66,1.49,-0.53,-232.85,185.0,-107.18
-1.71,1.6,-0.67,-218.93,195.37,-113.83
-1.78,1.53,-1.09,-207.82,207.7,-172.24
-1.78,1.38,-1.31,-218.87,170.53,-229.49
-1.9,1.34,-1.41,-230.59,148.5,-255.19
-2.04,0.95,-1.61,-250.0,99.43,-325.5
-2.07,0.64,-1.74,-247.99,73.12,-355.04
-2.08,-0.0,-1.81,-138.24,-14.71,-366.52
-1.96,-0.2,-1.68,-53.71,-116.21,-294.43
-1.69,0.05,-1.42,-62.19,-161.68,-236.21
-1.48,0.69,-1.01,-48.4,-211.91,-170.29
-1.44,0.88,-0.98,-20.51,-213.32,-181.09
-1.46,0.75,-1.02,50.05,-216.49,-255.55
-1.46,0.49,-1.0,159.67,-228.09,-326.17
-1.44,-0.06,-1.0,191.53,-220.76,-337.77
-1.29,-0.44,-1.13,204.22,-211.49,-305.79
-1.17,-0.52,-1.06,129.39,-231.87,-262.82
-0.99,-0.26,-0.7,-32.9,-302.55,-148.38
-0.92,-0.0,-0.44,-118.04,-349.43,-95.76
-0.81,0.1,-0.06,-125.61,-348.75,-102.48
-0.71,-0.33,-0.02,-106.81,-334.11,-123.78
-0.72,-0.56,0.01,-116.09,-333.98,-117.25
-0.68,-0.76,0.2,-96.25,-348.14,-57.68
-0.68,-0.71,0.32,-142.7,-353.7,25.02
-0.69,-0.53,0.58,-158.14,-353.7,56.34
-0.79,-0.56,0.89,-112.61,-366.39,83.68
-0.78,-0.69,1.11,-92.83,-380.74,89.29
-0.93,-0.84,1.57,-68.85,-405.7,141.91
-0.86,-0.75,1.87,-107.42,-405.58,256.71
-0.97,-0.25,2.52,-91.55,-399.9,308.78
-1.01,0.36,3.24,-59.14,-344.97,378.78
-1.05,0.62,3.48,-20.57,-281.62,392.76
-0.98,1.03,3.61,-182.8,-62.99,375.85
-1.09,1.19,3.37,-332.52,227.11,325.56
-1.23,1.09,2.18,-317.75,323.3,315.8
-1.21,1.33,1.4,-263.31,400.39,343.02
-1.3,1.61,1.14,-243.53,406.92,359.99
-1.33,2.38,0.73,-302.31,422.12,365.3
-1.32,2.77,0.4,-361.27,477.66,304.26
-1.19,3.18,-0.52,-386.17,487.85,234.74
-1.09,2.74,-1.1,-333.92,412.66,51.88
-1.02,2.26,-1.18,-215.27,324.65,-24.35
-1.02,1.61,-0.47,-140.14,156.13,-72.14
-1.01,1.53,-0.12,-159.91,123.72,-58.11
-1.05,1.69,0.05,-170.17,148.8,-52.37
-1.17,1.81,-0.43,-177.12,199.46,-81.67
-1.2,1.7,-0.6,-198.61,204.04,-110.9
-1.28,1.46,-0.87,-190.19,182.13,-158.45
-1.31,1.43,-0.92,-166.08,142.21,-189.7
-1.32,1.48,-1.03,-165.47,126.83,-207.95
-1.37,1.4,-1.14,-192.38,104.0,-249.27
-1.41,1.27,-1.21,-176.09,88.62,-272.46
-1.45,0.81,-1.33,-113.53,45.65,-311.52
-1.5,0.53,-1.38,-64.7,2.32,-314.21
-1.39,0.15,-1.55,25.76,-16.24,-291.26
-1.22,0.41,-1.61,-8.12,-72.63,-201.72
-1.19,0.69,-1.52,-37.6,-114.26,-166.32
-1.19,0.89,-1.24,-9.95,-189.27,-173.22
-1.18,0.78,-1.09,30.76,-231.26,-226.81
-1.14,0.44,-0.84,77.39,-237.43,-242.25
-1.06,0.17,-0.75,71.17,-229.92,-243.9
-1.03,0.06,-0.79,55.97,-225.04,-232.91
-0.88,-0.08,-0.73,-52.92,-238.71,-186.28
-0.84,-0.11,-0.59,-91.98,-275.33,-140.08
-0.76,-0.27,-0.32,-124.94,-292.24,-127.44
-0.64,-0.5,-0.09,-168.4,-300.42,-97.47
-0.59,-0.56,0.04,-194.52,-298.71,-68.12
-0.5,-0.51,0.22,-221.68,-277.34,4.27
-0.4,-0.46,0.37,-198.79,-250.79,52.25
-0.4,-0.57,0.35,-78.86,-246.95,66.47
-0.43,-0.67,0.5,-82.34,-253.23,103.88
-0.46,-0.64,0.66,-78.98,-266.97,129.21
-0.47,-0.55,1.14,-65.19,-283.57,179.99
-0.51,-0.52,1.41,-43.27,-291.5,225.59
-0.58,-0.34,1.95,-29.42,-285.77,255.8
-0.59,0.13,2.45,-67.63,-241.09,326.35
-0.62,0.45,2.7,-95.95,-204.59,357.91
-0.75,1.04,3.06,-107.91,-99.37,392.76
-0.81,1.3,3.17,-133.67,-24.41,379.76
-0.87,1.66,2.96,-169.31,172.91,368.04
-1.03,1.38,2.14,-149.23,328.92,306.95
-1.24,1.18,1.82,-174.13,366.09,288.64
-1.61,1.39,1.49,-203.19,406.8,320.62
-1.78,1.85,1.25,-200.74,442.02,409.73
-2.07,2.99,0.27,-293.95,554.44,432.86
-2.12,3.7,-1.03,-467.96,630.0,317.02
-2.0,3.57,-1.6,-468.08,602.78,178.16
-1.7,2.45,-1.99,-240.05,371.52,-108.83
-1.64,1.87,-1.43,-196.04,220.46,-175.11
-1.59,1.45,-0.34,-237.92,66.77,-174.19
-1.6,1.51,-0.22,-245.18,114.56,-157.47
-1.66,1.43,-0.42,-217.59,151.49,-176.39
-1.78,0.96,-0.88,-151.12,186.46,-232.3
-1.8,0.74,-1.11,-144.17,188.05,-244.75
-1.8,0.54,-1.63,-140.75,164.06,-222.05
-1.81,0.58,-1.93,-167.11,86.85,-185.3
-1.72,0.62,-1.87,-197.51,31.68,-175.17
-1.64,0.64,-1.52,-227.23,-75.5,-164.98
-1.67,0.61,-1.39,-215.7,-109.5,-167.97
-1.71,0.42,-1.39,-160.03,-145.32,-192.57
-1.64,0.16,-1.48,-72.27,-186.95,-203.0
-1.59,0.13,-1.43,-24.6,-219.06,-186.95
-1.45,0.18,-1.01,99.12,-306.7,-153.02
-1.31,0.22,-0.72,144.23,-342.41,-144.17
-1.12,0.3,-0.31,220.03,-368.53,-136.84
-0.96,0.27,-0.12,235.35,-350.22,-149.84
-0.88,0.23,-0.02,186.58,-330.26,-155.7
-0.74,0.23,0.08,53.65,-276.86,-164.0
-0.65,0.15,0.14,-39.55,-247.92,-169.8
-0.55,-0.16,-0.11,-73.18,-217.53,-163.45
-0.52,-0.38,-0.15,-129.94,-242.0,-125.18
-0.52,-0.46,-0.08,-159.55,-256.59,-99.79
-0.46,-0.6,0.07,-197.2,-269.29,-46.51
-0.44,-0.66,0.16,-205.87,-272.64,-18.01
-0.38,-0.68,0.41,-222.17,-282.53,51.57
-0.33,-0.65,0.68,-204.65,-279.91,120.67
-0.3,-0.62,0.86,-200.5,-276.43,152.22
-0.3,-0.4,1.31,-197.27,-270.08,223.94
-0.3,-0.23,1.47,-168.58,-250.73,261.54
-0.39,0.16,1.7,-132.32,-187.87,321.96
-0.43,0.55,1.87,-80.93,-126.83,369.93
-0.63,0.8,1.94,-61.28,-95.83,393.37
-0.8,1.39,2.01,-73.85,-20.94,431.15
-0.91,1.77,2.02,-108.52,26.37,441.71
-0.98,2.42,1.8,-171.26,138.85,416.69
-1.07,2.65,1.43,-241.58,246.7,321.53
-1.1,2.63,1.19,-249.82,298.71,268.31
-1.09,2.59,0.58,-249.27,389.59,180.18
-1.07,2.59,0.25,-271.91,422.85,144.53
-1.18,2.48,-0.38,-301.33,445.07,68.97
-1.2,2.43,-0.75,-298.34,393.8,-10.5
-1.21,2.3,-0.89,-290.95,363.71,-45.53
-1.18,2.1,-1.14,-276.12,300.72,-100.4
-1.2,2.04,-1.21,-269.71,263.06,-122.25
-1.26,2.0,-1.15,-260.31,176.88,-173.83
-1.35,1.93,-1.05,-231.51,103.52,-239.81
-1.51,1.53,-0.96,-254.82,82.21,-270.94
-1.64,1.03,-0.96,-194.58,72.63,-315.06
-1.66,0.8,-1.11,-146.24,83.86,-323.18
-1.7,0.49,-1.44,-152.4,101.93,-310.55
-1.66,0.43,-1.83,-123.11,77.27,-273.56
-1.76,0.4,-1.96,-97.96,50.48,-260.07
-1.83,0.25,-2.22,17.03,-16.72,-260.99
-1.8,0.26,-2.18,57.19,-60.79,-260.01
-1.8,0.29,-1.94,173.46,-164.12,-260.74
-1.75,0.2,-1.58,230.9,-239.38,-269.65
-1.47,0.06,-1.05,229.92,-242.37,-257.39
-1.22,0.34,-0.81,190.0,-208.13,-189.45
-1.16,0.51,-0.71,189.27,-191.41,-162.35
-1.02,0.62,-0.62,161.62,-165.59,-161.74
-0.99,0.67,-0.74,-9.95,-173.89,-198.3
-0.98,0.52,-0.75,-85.69,-205.57,-217.16
-0.95,0.13,-0.55,-121.03,-248.29,-223.82
-0.9,-0.06,-0.46,-130.13,-264.16,-213.2
-0.75,-0.27,-0.19,-156.01,-294.98,-163.39
-0.69,-0.29,-0.06,-183.35,-293.15,-99.85
-0.58,-0.37,0.09,-195.07,-281.92,-76.6
-0.54,-0.51,0.13,-200.26,-252.2,-34.06
-0.54,-0.58,0.09,-189.64,-240.11,-12.15
-0.6,-0.73,0.11,-194.7,-248.96,37.6
-0.64,-0.81,0.24,-280.4,-289.61,117.55
-0.78,-0.75,0.71,-339.66,-312.87,175.17
-0.93,-0.22,1.26,-504.27,-325.68,321.66
-0.93,0.23,1.71,-576.6,-299.01,397.16
-0.91,1.13,2.11,-309.51,-185.18,495.91
-0.84,1.64,2.11,-306.21,-32.41,527.53
-0.89,2.75,2.09,-289.12,39.73,513.0
-0.85,3.48,1.98,-138.31,200.56,388.79
-0.84,3.46,1.66,-93.44,291.08,295.59
-0.91,2.93,0.87,-112.18,411.25,144.17
-0.85,2.73,0.56,-138.43,430.6,66.28
-0.85,2.15,0.18,-208.62,424.8,38.33
-0.99,2.19,0.01,-244.2,390.56,11.78
-1.0,2.16,0.01,-273.13,380.19,-19.47
-1.12,1.94,-0.18,-252.5,394.23,-81.73
-1.18,1.85,-0.37,-205.75,431.4,-118.84
-1.34,1.7,-0.93,-224.79,446.04,-135.19
-1.38,1.55,-1.53,-231.99,433.72,-177.49
-1.41,1.44,-1.74,-246.89,392.46,-200.38
-1.45,1.12,-1.8,-256.53,265.99,-232.42
-1.45,0.97,-1.72,-217.53,149.05,-231.45
-1.45,0.84,-1.51,-196.29,114.44,-220.7
-1.48,0.91,-1.45,-174.93,77.64,-208.62
-1.52,0.95,-1.49,-166.2,66.04,-214.36
-1.65,0.8,-1.62,-133.61,39.18,-249.88
-1.72,0.61,-1.71,-85.75,5.8,-288.88
-1.86,0.17,-1.82,9.7,-9.95,-301.03
-1.82,-0.09,-1.86,126.59,-49.19,-288.94
-1.71,-0.06,-1.85,191.65,-76.66,-260.38
-1.57,0.33,-1.7,114.87,-124.08,-180.18
-1.54,0.57,-1.57,70.37,-182.43,-146.42
-1.54,0.84,-1.23,75.68,-196.47,-159.18
-1.49,0.7,-0.93,163.27,-200.2,-220.28
-1.49,0.51,-0.93,218.75,-180.42,-250.73
-1.37,0.23,-1.26,156.49,-139.65,-257.45
-1.31,0.24,-1.35,53.77,-198.36,-192.44
-1.27,0.35,-1.11,-99.06,-247.62,-158.2
-1.16,0.5,-0.65,-108.83,-329.53,-119.87
-1.14,0.46,-0.45,-109.19,-346.44,-119.51
-1.0,0.17,-0.2,-107.91,-343.44,-140.87
-0.93,-0.05,-0.15,-101.2,-334.05,-142.33
-0.76,-0.4,-0.09,-137.63,-308.59,-118.23
-0.71,-0.52,-0.08,-164.12,-275.39,-44.56
-0.74,-0.54,-0.13,-167.24,-254.88,-9.7
-0.8,-0.62,-0.19,-154.79,-237.79,41.2
-0.84,-0.68,-0.12,-144.53,-250.24,86.85
-1.01,-0.83,0.28,-164.31,-302.8,113.71
-1.23,-0.93,0.75,-248.78,-354.0,192.75
-1.47,-0.83,1.04,-368.96,-366.58,256.84
-1.79,0.03,1.88,-623.84,-331.12,448.12
-1.87,0.7,2.23,-505.07,-280.94,623.29
-1.64,2.14,2.53,-175.84,-150.76,651.37
-1.3,3.47,2.66,-247.01,21.12,583.62
-1.19,3.78,2.54,-326.17,129.7,468.57
-1.1,3.17,1.74,-323.55,339.6,161.8
-1.09,2.53,1.3,-296.75,413.33,53.47
-1.17,1.71,0.61,-251.65,490.72,-4.64
-1.26,1.76,-0.07,-220.09,523.01,63.29
-1.34,2.0,-0.51,-269.71,540.22,107.12
-1.47,2.73,-1.34,-394.9,564.51,106.38
-1.54,2.77,-1.79,-371.7,546.39,35.95
-1.53,2.21,-2.28,-259.64,389.53,-137.45
-1.44,1.46,-1.69,-162.48,166.81,-213.75
-1.43,1.33,-1.2,-184.69,93.99,-207.4
-1.39,1.47,-0.79,-223.27,65.8,-169.68
-1.54,1.57,-0.74,-285.1,84.35,-167.97
-1.68,1.42,-0.96,-230.53,115.42,-225.71
-1.87,1.05,-1.31,-165.34,139.16,-289.43
-2.0,0.85,-1.47,-160.52,144.23,-314.33
-2.13,0.46,-1.81,-117.8,128.6,-344.06
-2.13,0.36,-1.89,-87.22,102.05,-339.78
-2.15,0.31,-1.77,-4.7,20.94,-318.79
-2.12,0.18,-1.38,132.75,-32.71,-324.95
-1.98,0.14,-1.37,234.19,-27.53,-326.72
-1.84,0.23,-1.5,280.94,-2.69,-288.88
-1.76,0.34,-1.45,227.84,-9.64,-260.93
-1.66,0.47,-1.15,168.21,-51.09,-232.48
-1.52,0.47,-0.97,157.65,-66.22,-223.57
-1.49,0.51,-1.05,129.82,-61.83,-212.34
-1.44,0.66,-1.37,-1.1,-68.36,-189.51
-1.43,0.7,-1.47,-47.3,-95.58,-186.16
-1.43,0.66,-1.22,-88.81,-198.85,-191.71
-1.39,0.46,-0.7,-113.77,-287.54,-201.9
-1.31,0.32,-0.52,-131.59,-310.97,-203.12
-1.16,0.1,-0.32,-179.87,-327.15,-172.42
-1.11,0.02,-0.3,-206.05,-328.86,-147.22
-0.98,-0.07,-0.25,-243.04,-332.82,-85.27
-0.95,-0.12,-0.16,-259.77,-335.08,-21.36
-0.87,-0.15,-0.08,-263.73,-335.08,7.26
-0.8,-0.22,0.12,-228.27,-327.15,53.41
-0.77,-0.25,0.21,-207.82,-316.04,71.23
-0.71,-0.31,0.22,-184.63,-279.97,103.33
-0.72,-0.36,0.18,-196.72,-267.46,139.77
-0.79,-0.35,0.25,-203.43,-278.26,163.45
-0.95,-0.4,0.54,-263.73,-309.02,221.19
-1.09,-0.33,0.83,-319.34,-324.83,260.74
-1.26,0.19,1.36,-410.34,-332.89,372.99
